sender,sender_type,sender_id,timestamp,meta,,Blues,Classical,Country,Dance,Electronic,Folk,Gospel,Hip-Hop,Jazz,Latin,Musical/Film,New-age,Pop,Prolific_id,Provo_ID,R&B,Rap,Reggae,Religious,Rock,Soul,Swing,Traditional,age,artist_name,correct,correctResponse,distraction,duration,education,ended_on,familiarity,gender,headphone_check_performance,item,list,music_frequency,offensiveness,pleasantness,position_correct,preference,response,response_action,snippet_file,song_name,song_rating,sound,stimulus_1,stimulus_2,stimulus_3,text,time_commit,time_end,time_render,time_run,time_show,time_switch,url,word,word_ID
Prolific ID,html.Form,0,2021-04-28T16:23:15.856Z,"{""labjs_version"":""20.2.2"",""labjs_build"":{""flavor"":""production"",""commit"":""a25486e0c714a0ae2ce03ff94b7bb6896854dcfa""},""location"":""https://run.pavlovia.org/mvasilev/prolific_music_a/"",""userAgent"":""Mozilla/5.0 (Windows NT 10.0; Win64; x64; rv:88.0) Gecko/20100101 Firefox/88.0"",""platform"":""Win32"",""language"":""en-GB"",""locale"":""en-GB"",""timeZone"":""Europe/London"",""timezoneOffset"":-60,""screen_width"":1366,""screen_height"":768,""scroll_width"":1366,""scroll_height"":616,""window_innerWidth"":1366,""window_innerHeight"":664,""devicePixelRatio"":1}",,,,,,,,,,,,,,,5ee379c2c1832e050bac5c14,,,,,,,,,,,,,,,11936.16,,form submission,,,,,,,,,,,,,,,,,,,,,27128,27127,15181.02,15181,15190.84,27140.18,{},,
Introduction,html.Screen,1_0,2021-04-28T16:23:22.769Z,,,,,,,,,,,,,,,,,,,,,,,,,,,,,,,6882.82,,response,,,,,,,,,,,continue,click button,,,,,,,,,34042,34023,27123.52,27130,27140.18,34073.3,,,
Volume calibration,html.Screen,1_1,2021-04-28T16:23:53.161Z,,,,,,,,,,,,,,,,,,,,,,,,,,,,,,,30340.699999999997,,response,,,,,,,,,,,continue,click button,,,,,,,,,64433,64414,34039.98,34044,34073.3,64455.14,,,
Task instructions,html.Screen,1_2,2021-04-28T16:24:07.807Z,,,,,,,,,,,,,,,,,,,,,,,,,,,,,,,14597.86,,response,,,,,,,,,,,continue,click button,,,,,,,,,79080,79053,64438.48,64434,64455.14,79104.52,,,
Sounds,html.Screen,1_3_0_0,2021-04-28T16:24:12.070Z,,,,,,,,,,,,,,,,,,,,,,,,,,,,,,,4249.899999999994,,timeout,,,,,,,,,2,,,,,,,,I,S,O,,83342,83337.74,79087.86,79085,79104.52,83354.42,,,
Judgement,html.Screen,1_3_0_1,2021-04-28T16:24:13.826Z,,,,,,,,,,,,,,,,,,,,,,,,,,,,true,2,,1729.5800000000017,,response,,,,,,,,,2,,2,click #choice-2,,,,,I,S,O,,85099,85084,83337.74,83344,83354.42,85120.96,,,
Trial,flow.Sequence,1_3_0,2021-04-28T16:24:13.829Z,,,,,,,,,,,,,,,,,,,,,,,,,,,,,,,5979.479999999996,,completion,,,,,,,,,2,,,,,,,,I,S,O,,85101,85084,79087.86,79084,79104.52,85120.96,,,
Sounds,html.Screen,1_3_1_0,2021-04-28T16:24:18.087Z,,,,,,,,,,,,,,,,,,,,,,,,,,,,,,,4249.819999999992,,timeout,,,,,,,,,1,,,,,,,,S,O,I,,89359,89354.2,85104.3,85107,85120.96,89370.78,,,
Judgement,html.Screen,1_3_1_1,2021-04-28T16:24:18.721Z,,,,,,,,,,,,,,,,,,,,,,,,,,,,true,1,,605.2200000000012,,response,,,,,,,,,1,,1,click #choice-1,,,,,S,O,I,,89994,89976,89354.2,89360,89370.78,90020.72,,,
Trial,flow.Sequence,1_3_1,2021-04-28T16:24:18.724Z,,,,,,,,,,,,,,,,,,,,,,,,,,,,,,,4855.039999999994,,completion,,,,,,,,,1,,,,,,,,S,O,I,,89996,89976,85104.3,85103,85120.96,90020.72,,,
Sounds,html.Screen,1_3_2_0,2021-04-28T16:24:22.989Z,,,,,,,,,,,,,,,,,,,,,,,,,,,,,,,4266.459999999992,,timeout,,,,,,,,,2,,,,,,,,O,S,I,,94261,94253.84,90004.06,89998,90020.72,94287.18,,,
Judgement,html.Screen,1_3_2_1,2021-04-28T16:24:23.589Z,,,,,,,,,,,,,,,,,,,,,,,,,,,,true,2,,563.820000000007,,response,,,,,,,,,2,,2,click #choice-2,,,,,O,S,I,,94862,94851,94253.84,94263,94287.18,94887.24,,,
Trial,flow.Sequence,1_3_2,2021-04-28T16:24:23.591Z,,,,,,,,,,,,,,,,,,,,,,,,,,,,,,,4830.279999999999,,completion,,,,,,,,,2,,,,,,,,O,S,I,,94864,94851,90004.06,89998,90020.72,94887.24,,,
Sounds,html.Screen,1_3_3_0,2021-04-28T16:24:27.852Z,,,,,,,,,,,,,,,,,,,,,,,,,,,,,,,4249.699999999997,,timeout,,,,,,,,,1,,,,,,,,S,I,O,,99124,99120.28,94870.58,94865,94887.24,99136.94,,,
Judgement,html.Screen,1_3_3_1,2021-04-28T16:24:28.390Z,,,,,,,,,,,,,,,,,,,,,,,,,,,,true,1,,510.0599999999977,,response,,,,,,,,,1,,1,click #choice-1,,,,,S,I,O,,99662,99647,99120.28,99128,99136.94,99686.94,,,
Trial,flow.Sequence,1_3_3,2021-04-28T16:24:28.392Z,,,,,,,,,,,,,,,,,,,,,,,,,,,,,,,4759.759999999995,,completion,,,,,,,,,1,,,,,,,,S,I,O,,99663,99647,94870.58,94865,94887.24,99686.94,,,
Sounds,html.Screen,1_3_4_0,2021-04-28T16:24:32.650Z,,,,,,,,,,,,,,,,,,,,,,,,,,,,,,,4249.880000000005,,timeout,,,,,,,,,3,,,,,,,,I,O,S,,103922,103920.16,99670.26,99665,99686.94,103936.82,,,
Judgement,html.Screen,1_3_4_1,2021-04-28T16:24:33.145Z,,,,,,,,,,,,,,,,,,,,,,,,,,,,true,3,,461.179999999993,,response,,,,,,,,,3,,3,click #choice-3,,,,,I,O,S,,104417,104398,103920.16,103923,103936.82,104436.72,,,
Trial,flow.Sequence,1_3_4,2021-04-28T16:24:33.146Z,,,,,,,,,,,,,,,,,,,,,,,,,,,,,,,4711.059999999998,,completion,,,,,,,,,3,,,,,,,,I,O,S,,104419,104398,99670.26,99664,99686.94,104436.72,,,
Sounds,html.Screen,1_3_5_0,2021-04-28T16:24:37.400Z,,,,,,,,,,,,,,,,,,,,,,,,,,,,,,,4249.8399999999965,,timeout,,,,,,,,,3,,,,,,,,O,I,S,,108672,108669.88,104420.06,104420,104436.72,108686.56,,,
Judgement,html.Screen,1_3_5_1,2021-04-28T16:24:37.822Z,,,,,,,,,,,,,,,,,,,,,,,,,,,,true,3,,398.4400000000023,,response,,,,,,,,,3,,3,click #choice-3,,,,,O,I,S,,109094,109085,108669.88,108674,108686.56,109119.82,,,
Trial,flow.Sequence,1_3_5,2021-04-28T16:24:37.823Z,,,,,,,,,,,,,,,,,,,,,,,,,,,,,,,4648.279999999999,,completion,,,,,,,,,3,,,,,,,,O,I,S,,109096,109085,104420.06,104419,104436.72,109119.82,,,
Task,flow.Loop,1_3,2021-04-28T16:24:37.829Z,,,,,,,,,,,,,,,,,,,,,,,,,,,,,,,29980.479999999996,,completion,,,1,,,,,,,,,,,,,,,,,,109102,109085,79087.86,79083,79104.52,109119.82,,,
Trap,html.Screen,1_4,2021-04-28T16:24:37.842Z,,,,,,,,,,,,,,,,,,,,,,,,,,,,,,,NaN,,skipped,,,,,,,,,,,,,,,,,,,,,109114,109085,,109113,,109119.82,,,
Thanks,html.Screen,1_5,2021-04-28T16:24:41.669Z,,,,,,,,,,,,,,,,,,,,,,,,,,,,,,,3809.179999999993,,response,,,,,,,,,,,continue,click button,,,,,,,,,112941,112929,109103.16,109115,109119.82,120969.26,,,
Headphone screening,flow.Sequence,1,2021-04-28T16:24:41.670Z,,,,,,,,,,,,,,,,,,,,,,,,,,,,,,,85788.82,,completion,,,,,,,,,,,,,,,,,,,,,112942,112929,27123.52,27129,27140.18,120969.26,,,
Instructions,html.Page,2_0,2021-04-28T16:25:11.611Z,,,,,,,,,,,,,,,,,,,,,,,,,,,,,,,21904.740000000005,,form submission,,,,,,,,,,,,,,,,,,,,,142883,142874,120952.6,120948,120969.26,142884.94,,,
Holding screen,html.Screen,2_1_0_0,2021-04-28T16:25:21.599Z,,,,,,,,,,,,,,,,,,,,,,,,,,,,,,,9999.73999999999,,timeout,,,,,,,,,,,,,,,,,,,,,152872,152868.02,142868.28,142885,142884.94,152884.68,,,
screen,html.Screen,2_1_0_1_0,2021-04-28T16:25:22.556Z,,,,,,,,,,,,,,,,,53,,,,,,,,,,,,,,919.320000000007,,response,,,,99,,,,,,,Space,keypress(Space),,,,,,,,When -- ----- -- ------ - ------- --- ----------<br>------------- ------ ------ ---- ---- ------- ----- -- ----<br>-------- ------- -- ---------- --- - --- ----- ----- ----<br>---- --- --- ----- --- ---- ---- ------- ----- ---- -------<br>--- --- -- ----- -- --- ---- -- --- ---- -- ------ ------<br>--- ----- -- ----,153829,153804,152868.02,152874,152884.68,153834.6,,0,When
screen,html.Screen,2_1_0_1_1,2021-04-28T16:25:23.240Z,,,,,,,,,,,,,,,,,53,,,,,,,,,,,,,,657.3999999999942,,response,,,,99,,,,,,,Space,keypress(Space),,,,,,,,---- it ----- -- ------ - ------- --- ----------<br>------------- ------ ------ ---- ---- ------- ----- -- ----<br>-------- ------- -- ---------- --- - --- ----- ----- ----<br>---- --- --- ----- --- ---- ---- ------- ----- ---- -------<br>--- --- -- ----- -- --- ---- -- --- ---- -- ------ ------<br>--- ----- -- ----,154512,154492,153830.42,153830,153834.6,154517.88,,1,it
screen,html.Screen,2_1_0_1_2,2021-04-28T16:25:23.902Z,,,,,,,,,,,,,,,,,53,,,,,,,,,,,,,,645.1199999999953,,response,,,,99,,,,,,,Space,keypress(Space),,,,,,,,---- -- comes -- ------ - ------- --- ----------<br>------------- ------ ------ ---- ---- ------- ----- -- ----<br>-------- ------- -- ---------- --- - --- ----- ----- ----<br>---- --- --- ----- --- ---- ---- ------- ----- ---- -------<br>--- --- -- ----- -- --- ---- -- --- ---- -- ------ ------<br>--- ----- -- ----,155175,155163,154513.8,154513,154517.88,155184.52,,2,comes
screen,html.Screen,2_1_0_1_3,2021-04-28T16:25:24.587Z,,,,,,,,,,,,,,,,,53,,,,,,,,,,,,,,666.4800000000105,,response,,,,99,,,,,,,Space,keypress(Space),,,,,,,,---- -- ----- to ------ - ------- --- ----------<br>------------- ------ ------ ---- ---- ------- ----- -- ----<br>-------- ------- -- ---------- --- - --- ----- ----- ----<br>---- --- --- ----- --- ---- ---- ------- ----- ---- -------<br>--- --- -- ----- -- --- ---- -- --- ---- -- ------ ------<br>--- ----- -- ----,155859,155851,155177.42,155176,155184.52,155867.84,,3,to
screen,html.Screen,2_1_0_1_4,2021-04-28T16:25:25.364Z,,,,,,,,,,,,,,,,,53,,,,,,,,,,,,,,748.1600000000035,,response,,,,99,,,,,,,Space,keypress(Space),,,,,,,,---- -- ----- -- having - ------- --- ----------<br>------------- ------ ------ ---- ---- ------- ----- -- ----<br>-------- ------- -- ---------- --- - --- ----- ----- ----<br>---- --- --- ----- --- ---- ---- ------- ----- ---- -------<br>--- --- -- ----- -- --- ---- -- --- ---- -- ------ ------<br>--- ----- -- ----,156635,156616,155862.38,155862,155867.84,156651.08,,4,having
screen,html.Screen,2_1_0_1_5,2021-04-28T16:25:25.975Z,,,,,,,,,,,,,,,,,53,,,,,,,,,,,,,,574.9200000000128,,response,,,,99,,,,,,,Space,keypress(Space),,,,,,,,---- -- ----- -- ------ a ------- --- ----------<br>------------- ------ ------ ---- ---- ------- ----- -- ----<br>-------- ------- -- ---------- --- - --- ----- ----- ----<br>---- --- --- ----- --- ---- ---- ------- ----- ---- -------<br>--- --- -- ----- -- --- ---- -- --- ---- -- ------ ------<br>--- ----- -- ----,157248,157226,156638.4,156638,156651.08,157267.66,,5,a
screen,html.Screen,2_1_0_1_6,2021-04-28T16:25:26.560Z,,,,,,,,,,,,,,,,,53,,,,,,,,,,,,,,552.3399999999965,,response,,,,99,,,,,,,Space,keypress(Space),,,,,,,,---- -- ----- -- ------ - lasting --- ----------<br>------------- ------ ------ ---- ---- ------- ----- -- ----<br>-------- ------- -- ---------- --- - --- ----- ----- ----<br>---- --- --- ----- --- ---- ---- ------- ----- ---- -------<br>--- --- -- ----- -- --- ---- -- --- ---- -- ------ ------<br>--- ----- -- ----,157832,157820,157251.1,157248,157267.66,157850.96,,6,lasting
screen,html.Screen,2_1_0_1_7,2021-04-28T16:25:27.091Z,,,,,,,,,,,,,,,,,53,,,,,,,,,,,,,,500.04000000000815,,response,,,,99,,,,,,,Space,keypress(Space),,,,,,,,---- -- ----- -- ------ - ------- and ----------<br>------------- ------ ------ ---- ---- ------- ----- -- ----<br>-------- ------- -- ---------- --- - --- ----- ----- ----<br>---- --- --- ----- --- ---- ---- ------- ----- ---- -------<br>--- --- -- ----- -- --- ---- -- --- ---- -- ------ ------<br>--- ----- -- ----,158364,158351,157833.44,157833,157850.96,158384.38,,7,and
screen,html.Screen,2_1_0_1_8,2021-04-28T16:25:27.731Z,,,,,,,,,,,,,,,,,53,,,,,,,,,,,,,,607.6199999999953,,response,,,,99,,,,,,,Space,keypress(Space),,,,,,,,---- -- ----- -- ------ - ------- --- fulfilling<br>------------- ------ ------ ---- ---- ------- ----- -- ----<br>-------- ------- -- ---------- --- - --- ----- ----- ----<br>---- --- --- ----- --- ---- ---- ------- ----- ---- -------<br>--- --- -- ----- -- --- ---- -- --- ---- -- ------ ------<br>--- ----- -- ----,159003,158992,158367.72,158365,158384.38,159017.66,,8,fulfilling
screen,html.Screen,2_1_0_1_9,2021-04-28T16:25:28.588Z,,,,,,,,,,,,,,,,,53,,,,,,,,,,,,,,832.3399999999965,,response,,,,99,,,,,,,Space,keypress(Space),,,,,,,,"---- -- ----- -- ------ - ------- --- ----------<br>relationship, ------ ------ ---- ---- ------- ----- -- ----<br>-------- ------- -- ---------- --- - --- ----- ----- ----<br>---- --- --- ----- --- ---- ---- ------- ----- ---- -------<br>--- --- -- ----- -- --- ---- -- --- ---- -- ------ ------<br>--- ----- -- ----",159861,159850,159005.34,159004,159017.66,159867.66,,9,"relationship,"
screen,html.Screen,2_1_0_1_10,2021-04-28T16:25:29.338Z,,,,,,,,,,,,,,,,,53,,,,,,,,,,,,,,733.3399999999965,,response,,,,99,,,,,,,Space,keypress(Space),,,,,,,,---- -- ----- -- ------ - ------- --- ----------<br>------------- common ------ ---- ---- ------- ----- -- ----<br>-------- ------- -- ---------- --- - --- ----- ----- ----<br>---- --- --- ----- --- ---- ---- ------- ----- ---- -------<br>--- --- -- ----- -- --- ---- -- --- ---- -- ------ ------<br>--- ----- -- ----,160611,160601,159862.42,159862,159867.66,160617.64,,10,common
screen,html.Screen,2_1_0_1_11,2021-04-28T16:25:29.947Z,,,,,,,,,,,,,,,,,53,,,,,,,,,,,,,,592.359999999986,,response,,,,99,,,,,,,Space,keypress(Space),,,,,,,,---- -- ----- -- ------ - ------- --- ----------<br>------------- ------ wisdom ---- ---- ------- ----- -- ----<br>-------- ------- -- ---------- --- - --- ----- ----- ----<br>---- --- --- ----- --- ---- ---- ------- ----- ---- -------<br>--- --- -- ----- -- --- ---- -- --- ---- -- ------ ------<br>--- ----- -- ----,161219,161210,160612.46,160612,160617.64,161234.22,,11,wisdom
screen,html.Screen,2_1_0_1_12,2021-04-28T16:25:30.380Z,,,,,,,,,,,,,,,,,53,,,,,,,,,,,,,,397.77999999999884,,response,,,,99,,,,,,,Space,keypress(Space),,,,,,,,---- -- ----- -- ------ - ------- --- ----------<br>------------- ------ ------ says ---- ------- ----- -- ----<br>-------- ------- -- ---------- --- - --- ----- ----- ----<br>---- --- --- ----- --- ---- ---- ------- ----- ---- -------<br>--- --- -- ----- -- --- ---- -- --- ---- -- ------ ------<br>--- ----- -- ----,161652,161632,161220.48,161220,161234.22,161667.52,,12,says
screen,html.Screen,2_1_0_1_13,2021-04-28T16:25:30.832Z,,,,,,,,,,,,,,,,,53,,,,,,,,,,,,,,417.4800000000105,,response,,,,99,,,,,,,Space,keypress(Space),,,,,,,,---- -- ----- -- ------ - ------- --- ----------<br>------------- ------ ------ ---- that ------- ----- -- ----<br>-------- ------- -- ---------- --- - --- ----- ----- ----<br>---- --- --- ----- --- ---- ---- ------- ----- ---- -------<br>--- --- -- ----- -- --- ---- -- --- ---- -- ------ ------<br>--- ----- -- ----,162104,162085,161653.66,161653,161667.52,162117.54,,13,that
screen,html.Screen,2_1_0_1_14,2021-04-28T16:25:31.374Z,,,,,,,,,,,,,,,,,53,,,,,,,,,,,,,,513.4599999999919,,response,,,,99,,,,,,,Space,keypress(Space),,,,,,,,---- -- ----- -- ------ - ------- --- ----------<br>------------- ------ ------ ---- ---- feeling ----- -- ----<br>-------- ------- -- ---------- --- - --- ----- ----- ----<br>---- --- --- ----- --- ---- ---- ------- ----- ---- -------<br>--- --- -- ----- -- --- ---- -- --- ---- -- ------ ------<br>--- ----- -- ----,162646,162631,162106.4,162105,162117.54,162667.5,,14,feeling
screen,html.Screen,2_1_0_1_15,2021-04-28T16:25:31.905Z,,,,,,,,,,,,,,,,,53,,,,,,,,,,,,,,495.5,,response,,,,99,,,,,,,Space,keypress(Space),,,,,,,,---- -- ----- -- ------ - ------- --- ----------<br>------------- ------ ------ ---- ---- ------- close -- ----<br>-------- ------- -- ---------- --- - --- ----- ----- ----<br>---- --- --- ----- --- ---- ---- ------- ----- ---- -------<br>--- --- -- ----- -- --- ---- -- --- ---- -- ------ ------<br>--- ----- -- ----,163178,163163,162650.84,162647,162667.5,163184.36,,15,close
screen,html.Screen,2_1_0_1_16,2021-04-28T16:25:32.259Z,,,,,,,,,,,,,,,,,53,,,,,,,,,,,,,,338.64000000001397,,response,,,,99,,,,,,,Space,keypress(Space),,,,,,,,---- -- ----- -- ------ - ------- --- ----------<br>------------- ------ ------ ---- ---- ------- ----- to ----<br>-------- ------- -- ---------- --- - --- ----- ----- ----<br>---- --- --- ----- --- ---- ---- ------- ----- ---- -------<br>--- --- -- ----- -- --- ---- -- --- ---- -- ------ ------<br>--- ----- -- ----,163531,163523,163179.22,163179,163184.36,163550.84,,16,to
screen,html.Screen,2_1_0_1_17,2021-04-28T16:25:32.798Z,,,,,,,,,,,,,,,,,53,,,,,,,,,,,,,,503.1600000000035,,response,,,,99,,,,,,,Space,keypress(Space),,,,,,,,---- -- ----- -- ------ - ------- --- ----------<br>------------- ------ ------ ---- ---- ------- ----- -- your<br>-------- ------- -- ---------- --- - --- ----- ----- ----<br>---- --- --- ----- --- ---- ---- ------- ----- ---- -------<br>--- --- -- ----- -- --- ---- -- --- ---- -- ------ ------<br>--- ----- -- ----,164070,164054,163534.16,163532,163550.84,164084.08,,17,your
screen,html.Screen,2_1_0_1_18,2021-04-28T16:25:33.612Z,,,,,,,,,,,,,,,,,53,,,,,,,,,,,,,,782.9200000000128,,response,,,,99,,,,,,,Space,keypress(Space),,,,,,,,---- -- ----- -- ------ - ------- --- ----------<br>------------- ------ ------ ---- ---- ------- ----- -- ----<br>romantic ------- -- ---------- --- - --- ----- ----- ----<br>---- --- --- ----- --- ---- ---- ------- ----- ---- -------<br>--- --- -- ----- -- --- ---- -- --- ---- -- ------ ------<br>--- ----- -- ----,164884,164867,164071.34,164071,164084.08,164900.74,,18,romantic
screen,html.Screen,2_1_0_1_19,2021-04-28T16:25:34.133Z,,,,,,,,,,,,,,,,,53,,,,,,,,,,,,,,497.2600000000093,,response,,,,99,,,,,,,Space,keypress(Space),,,,,,,,---- -- ----- -- ------ - ------- --- ----------<br>------------- ------ ------ ---- ---- ------- ----- -- ----<br>-------- partner -- ---------- --- - --- ----- ----- ----<br>---- --- --- ----- --- ---- ---- ------- ----- ---- -------<br>--- --- -- ----- -- --- ---- -- --- ---- -- ------ ------<br>--- ----- -- ----,165405,165398,164886.54,164886,164900.74,165417.3,,19,partner
screen,html.Screen,2_1_0_1_20,2021-04-28T16:25:34.636Z,,,,,,,,,,,,,,,,,53,,,,,,,,,,,,,,463.70000000001164,,response,,,,99,,,,,,,Space,keypress(Space),,,,,,,,---- -- ----- -- ------ - ------- --- ----------<br>------------- ------ ------ ---- ---- ------- ----- -- ----<br>-------- ------- is ---------- --- - --- ----- ----- ----<br>---- --- --- ----- --- ---- ---- ------- ----- ---- -------<br>--- --- -- ----- -- --- ---- -- --- ---- -- ------ ------<br>--- ----- -- ----,165909,165881,165405.5,165405,165417.3,165917.36,,20,is
screen,html.Screen,2_1_0_1_21,2021-04-28T16:25:36.092Z,,,,,,,,,,,,,,,,,53,,,,,,,,,,,,,,1433.640000000014,,response,,,,99,,,,,,,Space,keypress(Space),,,,,,,,---- -- ----- -- ------ - ------- --- ----------<br>------------- ------ ------ ---- ---- ------- ----- -- ----<br>-------- ------- -- paramount. --- - --- ----- ----- ----<br>---- --- --- ----- --- ---- ---- ------- ----- ---- -------<br>--- --- -- ----- -- --- ---- -- --- ---- -- ------ ------<br>--- ----- -- ----,167364,167351,165909.62,165909,165917.36,167384,,21,paramount.
screen,html.Screen,2_1_0_1_22,2021-04-28T16:25:36.669Z,,,,,,,,,,,,,,,,,53,,,,,,,,,,,,,,545,,response,,,,99,,,,,,,Space,keypress(Space),,,,,,,,---- -- ----- -- ------ - ------- --- ----------<br>------------- ------ ------ ---- ---- ------- ----- -- ----<br>-------- ------- -- ---------- But - --- ----- ----- ----<br>---- --- --- ----- --- ---- ---- ------- ----- ---- -------<br>--- --- -- ----- -- --- ---- -- --- ---- -- ------ ------<br>--- ----- -- ----,167942,167929,167367.32,167365,167384,167950.6,,22,But
screen,html.Screen,2_1_0_1_23,2021-04-28T16:25:37.103Z,,,,,,,,,,,,,,,,,53,,,,,,,,,,,,,,400.3999999999942,,response,,,,99,,,,,,,Space,keypress(Space),,,,,,,,---- -- ----- -- ------ - ------- --- ----------<br>------------- ------ ------ ---- ---- ------- ----- -- ----<br>-------- ------- -- ---------- --- a --- ----- ----- ----<br>---- --- --- ----- --- ---- ---- ------- ----- ---- -------<br>--- --- -- ----- -- --- ---- -- --- ---- -- ------ ------<br>--- ----- -- ----,168375,168351,167942.96,167943,167950.6,168383.92,,23,a
screen,html.Screen,2_1_0_1_24,2021-04-28T16:25:37.592Z,,,,,,,,,,,,,,,,,53,,,,,,,,,,,,,,467.0799999999872,,response,,,,99,,,,,,,Space,keypress(Space),,,,,,,,---- -- ----- -- ------ - ------- --- ----------<br>------------- ------ ------ ---- ---- ------- ----- -- ----<br>-------- ------- -- ---------- --- - new ----- ----- ----<br>---- --- --- ----- --- ---- ---- ------- ----- ---- -------<br>--- --- -- ----- -- --- ---- -- --- ---- -- ------ ------<br>--- ----- -- ----,168864,168851,168376.3,168376,168383.92,168883.92,,24,new
screen,html.Screen,2_1_0_1_25,2021-04-28T16:25:38.167Z,,,,,,,,,,,,,,,,,53,,,,,,,,,,,,,,545.0799999999872,,response,,,,99,,,,,,,Space,keypress(Space),,,,,,,,---- -- ----- -- ------ - ------- --- ----------<br>------------- ------ ------ ---- ---- ------- ----- -- ----<br>-------- ------- -- ---------- --- - --- study ----- ----<br>---- --- --- ----- --- ---- ---- ------- ----- ---- -------<br>--- --- -- ----- -- --- ---- -- --- ---- -- ------ ------<br>--- ----- -- ----,169440,169429,168867.26,168864,168883.92,169450.6,,25,study
screen,html.Screen,2_1_0_1_26,2021-04-28T16:25:38.709Z,,,,,,,,,,,,,,,,,53,,,,,,,,,,,,,,524.3999999999942,,response,,,,99,,,,,,,Space,keypress(Space),,,,,,,,---- -- ----- -- ------ - ------- --- ----------<br>------------- ------ ------ ---- ---- ------- ----- -- ----<br>-------- ------- -- ---------- --- - --- ----- finds ----<br>---- --- --- ----- --- ---- ---- ------- ----- ---- -------<br>--- --- -- ----- -- --- ---- -- --- ---- -- ------ ------<br>--- ----- -- ----,169981,169975,169441.2,169440,169450.6,170000.54,,26,finds
screen,html.Screen,2_1_0_1_27,2021-04-28T16:25:39.137Z,,,,,,,,,,,,,,,,,53,,,,,,,,,,,,,,396.45999999999185,,response,,,,99,,,,,,,Space,keypress(Space),,,,,,,,---- -- ----- -- ------ - ------- --- ----------<br>------------- ------ ------ ---- ---- ------- ----- -- ----<br>-------- ------- -- ---------- --- - --- ----- ----- that<br>---- --- --- ----- --- ---- ---- ------- ----- ---- -------<br>--- --- -- ----- -- --- ---- -- --- ---- -- ------ ------<br>--- ----- -- ----,170410,170397,169983.88,169982,170000.54,170417.16,,27,that
screen,html.Screen,2_1_0_1_28,2021-04-28T16:25:39.691Z,,,,,,,,,,,,,,,,,53,,,,,,,,,,,,,,527.8399999999965,,response,,,,99,,,,,,,Space,keypress(Space),,,,,,,,---- -- ----- -- ------ - ------- --- ----------<br>------------- ------ ------ ---- ---- ------- ----- -- ----<br>-------- ------- -- ---------- --- - --- ----- ----- ----<br>it's --- --- ----- --- ---- ---- ------- ----- ---- -------<br>--- --- -- ----- -- --- ---- -- --- ---- -- ------ ------<br>--- ----- -- ----,170964,170945,170410.68,170410,170417.16,170983.8,,28,it's
screen,html.Screen,2_1_0_1_29,2021-04-28T16:25:40.160Z,,,,,,,,,,,,,,,,,53,,,,,,,,,,,,,,430.20000000001164,,response,,,,99,,,,,,,Space,keypress(Space),,,,,,,,---- -- ----- -- ------ - ------- --- ----------<br>------------- ------ ------ ---- ---- ------- ----- -- ----<br>-------- ------- -- ---------- --- - --- ----- ----- ----<br>---- not --- ----- --- ---- ---- ------- ----- ---- -------<br>--- --- -- ----- -- --- ---- -- --- ---- -- ------ ------<br>--- ----- -- ----,171432,171414,170967.12,170965,170983.8,171450.34,,29,not
screen,html.Screen,2_1_0_1_30,2021-04-28T16:25:40.732Z,,,,,,,,,,,,,,,,,53,,,,,,,,,,,,,,540.6600000000035,,response,,,,99,,,,,,,Space,keypress(Space),,,,,,,,---- -- ----- -- ------ - ------- --- ----------<br>------------- ------ ------ ---- ---- ------- ----- -- ----<br>-------- ------- -- ---------- --- - --- ----- ----- ----<br>---- --- how ----- --- ---- ---- ------- ----- ---- -------<br>--- --- -- ----- -- --- ---- -- --- ---- -- ------ ------<br>--- ----- -- ----,172005,171991,171433.2,171433,171450.34,172017.08,,30,how
screen,html.Screen,2_1_0_1_31,2021-04-28T16:25:41.241Z,,,,,,,,,,,,,,,,,53,,,,,,,,,,,,,,473.9200000000128,,response,,,,99,,,,,,,Space,keypress(Space),,,,,,,,---- -- ----- -- ------ - ------- --- ----------<br>------------- ------ ------ ---- ---- ------- ----- -- ----<br>-------- ------- -- ---------- --- - --- ----- ----- ----<br>---- --- --- close --- ---- ---- ------- ----- ---- -------<br>--- --- -- ----- -- --- ---- -- --- ---- -- ------ ------<br>--- ----- -- ----,172513,172491,172006.3,172006,172017.08,172533.74,,31,close
screen,html.Screen,2_1_0_1_32,2021-04-28T16:25:41.687Z,,,,,,,,,,,,,,,,,53,,,,,,,,,,,,,,411.2600000000093,,response,,,,99,,,,,,,Space,keypress(Space),,,,,,,,---- -- ----- -- ------ - ------- --- ----------<br>------------- ------ ------ ---- ---- ------- ----- -- ----<br>-------- ------- -- ---------- --- - --- ----- ----- ----<br>---- --- --- ----- you ---- ---- ------- ----- ---- -------<br>--- --- -- ----- -- --- ---- -- --- ---- -- ------ ------<br>--- ----- -- ----,172959,172945,172517.06,172514,172533.74,172967.04,,32,you
screen,html.Screen,2_1_0_1_33,2021-04-28T16:25:42.177Z,,,,,,,,,,,,,,,,,53,,,,,,,,,,,,,,461.95999999999185,,response,,,,99,,,,,,,Space,keypress(Space),,,,,,,,---- -- ----- -- ------ - ------- --- ----------<br>------------- ------ ------ ---- ---- ------- ----- -- ----<br>-------- ------- -- ---------- --- - --- ----- ----- ----<br>---- --- --- ----- --- feel ---- ------- ----- ---- -------<br>--- --- -- ----- -- --- ---- -- --- ---- -- ------ ------<br>--- ----- -- ----,173449,173429,172960.26,172960,172967.04,173466.96,,33,feel
screen,html.Screen,2_1_0_1_34,2021-04-28T16:25:42.630Z,,,,,,,,,,,,,,,,,53,,,,,,,,,,,,,,415.04000000000815,,response,,,,99,,,,,,,Space,keypress(Space),,,,,,,,---- -- ----- -- ------ - ------- --- ----------<br>------------- ------ ------ ---- ---- ------- ----- -- ----<br>-------- ------- -- ---------- --- - --- ----- ----- ----<br>---- --- --- ----- --- ---- that ------- ----- ---- -------<br>--- --- -- ----- -- --- ---- -- --- ---- -- ------ ------<br>--- ----- -- ----,173903,173882,173450.06,173450,173466.96,173917.02,,34,that
screen,html.Screen,2_1_0_1_35,2021-04-28T16:25:43.267Z,,,,,,,,,,,,,,,,,53,,,,,,,,,,,,,,605.9800000000105,,response,,,,99,,,,,,,Space,keypress(Space),,,,,,,,---- -- ----- -- ------ - ------- --- ----------<br>------------- ------ ------ ---- ---- ------- ----- -- ----<br>-------- ------- -- ---------- --- - --- ----- ----- ----<br>---- --- --- ----- --- ---- ---- matters ----- ---- -------<br>--- --- -- ----- -- --- ---- -- --- ---- -- ------ ------<br>--- ----- -- ----,174540,174523,173904.3,173904,173917.02,174550.32,,35,matters
screen,html.Screen,2_1_0_1_36,2021-04-28T16:25:44.016Z,,,,,,,,,,,,,,,,,53,,,,,,,,,,,,,,722.679999999993,,response,,,,99,,,,,,,Space,keypress(Space),,,,,,,,"---- -- ----- -- ------ - ------- --- ----------<br>------------- ------ ------ ---- ---- ------- ----- -- ----<br>-------- ------- -- ---------- --- - --- ----- ----- ----<br>---- --- --- ----- --- ---- ---- ------- most, ---- -------<br>--- --- -- ----- -- --- ---- -- --- ---- -- ------ ------<br>--- ----- -- ----",175288,175273,174541.14,174541,174550.32,175300.28,,36,"most,"
screen,html.Screen,2_1_0_1_37,2021-04-28T16:25:44.617Z,,,,,,,,,,,,,,,,,53,,,,,,,,,,,,,,566.7200000000012,,response,,,,99,,,,,,,Space,keypress(Space),,,,,,,,---- -- ----- -- ------ - ------- --- ----------<br>------------- ------ ------ ---- ---- ------- ----- -- ----<br>-------- ------- -- ---------- --- - --- ----- ----- ----<br>---- --- --- ----- --- ---- ---- ------- ----- it's -------<br>--- --- -- ----- -- --- ---- -- --- ---- -- ------ ------<br>--- ----- -- ----,175889,175867,175289.56,175289,175300.28,175900.46,,37,it's
screen,html.Screen,2_1_0_1_38,2021-04-28T16:25:45.092Z,,,,,,,,,,,,,,,,,53,,,,,,,,,,,,,,450.54000000000815,,response,,,,99,,,,,,,Space,keypress(Space),,,,,,,,---- -- ----- -- ------ - ------- --- ----------<br>------------- ------ ------ ---- ---- ------- ----- -- ----<br>-------- ------- -- ---------- --- - --- ----- ----- ----<br>---- --- --- ----- --- ---- ---- ------- ----- ---- whether<br>--- --- -- ----- -- --- ---- -- --- ---- -- ------ ------<br>--- ----- -- ----,176364,176351,175890.9,175890,175900.46,176383.6,,38,whether
screen,html.Screen,2_1_0_1_39,2021-04-28T16:25:45.506Z,,,,,,,,,,,,,,,,,53,,,,,,,,,,,,,,373.3999999999942,,response,,,,99,,,,,,,Space,keypress(Space),,,,,,,,---- -- ----- -- ------ - ------- --- ----------<br>------------- ------ ------ ---- ---- ------- ----- -- ----<br>-------- ------- -- ---------- --- - --- ----- ----- ----<br>---- --- --- ----- --- ---- ---- ------- ----- ---- -------<br>you --- -- ----- -- --- ---- -- --- ---- -- ------ ------<br>--- ----- -- ----,176779,176757,176366.94,176364,176383.6,176783.54,,39,you
screen,html.Screen,2_1_0_1_40,2021-04-28T16:25:45.966Z,,,,,,,,,,,,,,,,,53,,,,,,,,,,,,,,442.45999999999185,,response,,,,99,,,,,,,Space,keypress(Space),,,,,,,,---- -- ----- -- ------ - ------- --- ----------<br>------------- ------ ------ ---- ---- ------- ----- -- ----<br>-------- ------- -- ---------- --- - --- ----- ----- ----<br>---- --- --- ----- --- ---- ---- ------- ----- ---- -------<br>--- are -- ----- -- --- ---- -- --- ---- -- ------ ------<br>--- ----- -- ----,177238,177226,176779.86,176780,176783.54,177250.2,,40,are
screen,html.Screen,2_1_0_1_41,2021-04-28T16:25:46.516Z,,,,,,,,,,,,,,,,,53,,,,,,,,,,,,,,522.7999999999884,,response,,,,99,,,,,,,Space,keypress(Space),,,,,,,,---- -- ----- -- ------ - ------- --- ----------<br>------------- ------ ------ ---- ---- ------- ----- -- ----<br>-------- ------- -- ---------- --- - --- ----- ----- ----<br>---- --- --- ----- --- ---- ---- ------- ----- ---- -------<br>--- --- as ----- -- --- ---- -- --- ---- -- ------ ------<br>--- ----- -- ----,177789,177773,177239.48,177239,177250.2,177800.2,,41,as
screen,html.Screen,2_1_0_1_42,2021-04-28T16:25:47.016Z,,,,,,,,,,,,,,,,,53,,,,,,,,,,,,,,471.79999999998836,,response,,,,99,,,,,,,Space,keypress(Space),,,,,,,,---- -- ----- -- ------ - ------- --- ----------<br>------------- ------ ------ ---- ---- ------- ----- -- ----<br>-------- ------- -- ---------- --- - --- ----- ----- ----<br>---- --- --- ----- --- ---- ---- ------- ----- ---- -------<br>--- --- -- close -- --- ---- -- --- ---- -- ------ ------<br>--- ----- -- ----,178289,178272,177789.78,177790,177800.2,178300.14,,42,close
screen,html.Screen,2_1_0_1_43,2021-04-28T16:25:47.465Z,,,,,,,,,,,,,,,,,53,,,,,,,,,,,,,,425.85999999998603,,response,,,,99,,,,,,,Space,keypress(Space),,,,,,,,---- -- ----- -- ------ - ------- --- ----------<br>------------- ------ ------ ---- ---- ------- ----- -- ----<br>-------- ------- -- ---------- --- - --- ----- ----- ----<br>---- --- --- ----- --- ---- ---- ------- ----- ---- -------<br>--- --- -- ----- as --- ---- -- --- ---- -- ------ ------<br>--- ----- -- ----,178738,178726,178289.72,178289,178300.14,178750.12,,43,as
screen,html.Screen,2_1_0_1_44,2021-04-28T16:25:47.853Z,,,,,,,,,,,,,,,,,53,,,,,,,,,,,,,,350.88000000000466,,response,,,,99,,,,,,,Space,keypress(Space),,,,,,,,---- -- ----- -- ------ - ------- --- ----------<br>------------- ------ ------ ---- ---- ------- ----- -- ----<br>-------- ------- -- ---------- --- - --- ----- ----- ----<br>---- --- --- ----- --- ---- ---- ------- ----- ---- -------<br>--- --- -- ----- -- you ---- -- --- ---- -- ------ ------<br>--- ----- -- ----,179126,179101,178738.9,178739,178750.12,179133.44,,44,you
screen,html.Screen,2_1_0_1_45,2021-04-28T16:25:48.222Z,,,,,,,,,,,,,,,,,53,,,,,,,,,,,,,,341.5599999999977,,response,,,,99,,,,,,,Space,keypress(Space),,,,,,,,---- -- ----- -- ------ - ------- --- ----------<br>------------- ------ ------ ---- ---- ------- ----- -- ----<br>-------- ------- -- ---------- --- - --- ----- ----- ----<br>---- --- --- ----- --- ---- ---- ------- ----- ---- -------<br>--- --- -- ----- -- --- want -- --- ---- -- ------ ------<br>--- ----- -- ----,179494,179475,179126.98,179126,179133.44,179500.12,,45,want
screen,html.Screen,2_1_0_1_46,2021-04-28T16:25:48.603Z,,,,,,,,,,,,,,,,,53,,,,,,,,,,,,,,366.88000000000466,,response,,,,99,,,,,,,Space,keypress(Space),,,,,,,,---- -- ----- -- ------ - ------- --- ----------<br>------------- ------ ------ ---- ---- ------- ----- -- ----<br>-------- ------- -- ---------- --- - --- ----- ----- ----<br>---- --- --- ----- --- ---- ---- ------- ----- ---- -------<br>--- --- -- ----- -- --- ---- to --- ---- -- ------ ------<br>--- ----- -- ----,179877,179867,179495.74,179495,179500.12,179883.62,,46,to
screen,html.Screen,2_1_0_1_47,2021-04-28T16:25:49.026Z,,,,,,,,,,,,,,,,,53,,,,,,,,,,,,,,404.38000000000466,,response,,,,99,,,,,,,Space,keypress(Space),,,,,,,,"---- -- ----- -- ------ - ------- --- ----------<br>------------- ------ ------ ---- ---- ------- ----- -- ----<br>-------- ------- -- ---------- --- - --- ----- ----- ----<br>---- --- --- ----- --- ---- ---- ------- ----- ---- -------<br>--- --- -- ----- -- --- ---- -- be, ---- -- ------ ------<br>--- ----- -- ----",180298,180288,179877.92,179878,179883.62,180316.66,,47,"be,"
screen,html.Screen,2_1_0_1_48,2021-04-28T16:25:49.712Z,,,,,,,,,,,,,,,,,53,,,,,,,,,,,,,,659.3399999999965,,response,,,,99,,,,,,,Space,keypress(Space),,,,,,,,---- -- ----- -- ------ - ------- --- ----------<br>------------- ------ ------ ---- ---- ------- ----- -- ----<br>-------- ------- -- ---------- --- - --- ----- ----- ----<br>---- --- --- ----- --- ---- ---- ------- ----- ---- -------<br>--- --- -- ----- -- --- ---- -- --- even -- ------ ------<br>--- ----- -- ----,180984,180976,180299.82,180300,180316.66,181000.04,,48,even
screen,html.Screen,2_1_0_1_49,2021-04-28T16:25:50.134Z,,,,,,,,,,,,,,,,,53,,,,,,,,,,,,,,397.95999999999185,,response,,,,99,,,,,,,Space,keypress(Space),,,,,,,,---- -- ----- -- ------ - ------- --- ----------<br>------------- ------ ------ ---- ---- ------- ----- -- ----<br>-------- ------- -- ---------- --- - --- ----- ----- ----<br>---- --- --- ----- --- ---- ---- ------- ----- ---- -------<br>--- --- -- ----- -- --- ---- -- --- ---- if ------ ------<br>--- ----- -- ----,181408,181398,180985.48,180985,181000.04,181416.66,,49,if
screen,html.Screen,2_1_0_1_50,2021-04-28T16:25:50.625Z,,,,,,,,,,,,,,,,,53,,,,,,,,,,,,,,464.3399999999965,,response,,,,99,,,,,,,Space,keypress(Space),,,,,,,,---- -- ----- -- ------ - ------- --- ----------<br>------------- ------ ------ ---- ---- ------- ----- -- ----<br>-------- ------- -- ---------- --- - --- ----- ----- ----<br>---- --- --- ----- --- ---- ---- ------- ----- ---- -------<br>--- --- -- ----- -- --- ---- -- --- ---- -- that's ------<br>--- ----- -- ----,181897,181881,181408.42,181408,181416.66,181916.68,,50,that's
screen,html.Screen,2_1_0_1_51,2021-04-28T16:25:51.105Z,,,,,,,,,,,,,,,,,53,,,,,,,,,,,,,,433.320000000007,,response,,,,99,,,,,,,Space,keypress(Space),,,,,,,,---- -- ----- -- ------ - ------- --- ----------<br>------------- ------ ------ ---- ---- ------- ----- -- ----<br>-------- ------- -- ---------- --- - --- ----- ----- ----<br>---- --- --- ----- --- ---- ---- ------- ----- ---- -------<br>--- --- -- ----- -- --- ---- -- --- ---- -- ------ really<br>--- ----- -- ----,182377,182350,181900,181898,181916.68,182383.32,,51,really
screen,html.Screen,2_1_0_1_52,2021-04-28T16:25:51.564Z,,,,,,,,,,,,,,,,,53,,,,,,,,,,,,,,436.679999999993,,response,,,,99,,,,,,,Space,keypress(Space),,,,,,,,---- -- ----- -- ------ - ------- --- ----------<br>------------- ------ ------ ---- ---- ------- ----- -- ----<br>-------- ------- -- ---------- --- - --- ----- ----- ----<br>---- --- --- ----- --- ---- ---- ------- ----- ---- -------<br>--- --- -- ----- -- --- ---- -- --- ---- -- ------ ------<br>not ----- -- ----,182836,182820,182378.68,182378,182383.32,182849.9,,52,not
screen,html.Screen,2_1_0_1_53,2021-04-28T16:25:52.063Z,,,,,,,,,,,,,,,,,53,,,,,,,,,,,,,,469.1000000000058,,response,,,,99,,,,,,,Space,keypress(Space),,,,,,,,---- -- ----- -- ------ - ------- --- ----------<br>------------- ------ ------ ---- ---- ------- ----- -- ----<br>-------- ------- -- ---------- --- - --- ----- ----- ----<br>---- --- --- ----- --- ---- ---- ------- ----- ---- -------<br>--- --- -- ----- -- --- ---- -- --- ---- -- ------ ------<br>--- close -- ----,183336,183319,182837.92,182837,182849.9,183349.9,,53,close
screen,html.Screen,2_1_0_1_54,2021-04-28T16:25:52.584Z,,,,,,,,,,,,,,,,,53,,,,,,,,,,,,,,485.1000000000058,,response,,,,99,,,,,,,Space,keypress(Space),,,,,,,,---- -- ----- -- ------ - ------- --- ----------<br>------------- ------ ------ ---- ---- ------- ----- -- ----<br>-------- ------- -- ---------- --- - --- ----- ----- ----<br>---- --- --- ----- --- ---- ---- ------- ----- ---- -------<br>--- --- -- ----- -- --- ---- -- --- ---- -- ------ ------<br>--- ----- at ----,183856,183835,183338.08,183337,183349.9,183866.56,,54,at
screen,html.Screen,2_1_0_1_55,2021-04-28T16:25:53.181Z,,,,,,,,,,,,,,,,,53,,,,,,,,,,,,,,578.4400000000023,,response,,,,99,,,,,,,Space,keypress(Space),,,,,,,,---- -- ----- -- ------ - ------- --- ----------<br>------------- ------ ------ ---- ---- ------- ----- -- ----<br>-------- ------- -- ---------- --- - --- ----- ----- ----<br>---- --- --- ----- --- ---- ---- ------- ----- ---- -------<br>--- --- -- ----- -- --- ---- -- --- ---- -- ------ ------<br>--- ----- -- all.,184453,184445,183857.4,183856,183866.56,184466.72,,55,all.
Item 99,flow.Loop,2_1_0_1,2021-04-28T16:25:53.183Z,,,,,,,,,,,,,,,,,,,,,,,,,,,,,,,31560.320000000007,,completion,,,,,A,,,,,,,,,,,silence,,,,,184455,184445,152868.02,152873,152884.68,184466.72,,,
Question 1,html.Screen,2_1_0_2,2021-04-28T16:25:58.509Z,,,,,,,,,,,,,,,,,,,,,,,,,,,,true,FALSE,,5290.279999999999,,response,,,,99,A,,,,,,FALSE,click #choice-2,,,,silence,,,,,189781,189757,184456.86,184456,184466.72,189799.58,,,
Question 2,html.Screen,2_1_0_3,2021-04-28T16:26:05.214Z,,,,,,,,,,,,,,,,,,,,,,,,,,,,true,TRUE,,6676.420000000013,,response,,,,99,A,,,,,,TRUE,click #choice-1,,,,silence,,,,,196487,196476,189782.92,189781,189799.58,196499.36,,,
Item 99,flow.Sequence,2_1_0,2021-04-28T16:26:05.216Z,,,,,,,,,,,,,,,,,,,,,,,,,,,,,,,53591.06,,completion,,,,,,,,,,,,,,,,,,,,,196488,196476,142868.28,142885,142884.94,196499.36,,,
Holding screen,html.Screen,2_1_1_0,2021-04-28T16:26:15.216Z,,,,,,,,,,,,,,,,,,,,,,,,,,,,,,,9999.560000000027,,timeout,,,,,,,,,,,,,,,,,,,,,206487,206482.28,196482.68,196489,196499.36,206498.92,,,
screen,html.Screen,2_1_1_1_0,2021-04-28T16:26:16.272Z,,,,,,,,,,,,,,,,,54,,,,,,,,,,,,,,1024.0799999999872,,response,,,,100,,,,,,,Space,keypress(Space),,,,,,,,At --- ---- --- ------ ----- ------- ---- -- --- ------- --<br>------- ---------- ------ -- ----- -- ----- -- ---- ------<br>--- ----- --- --- ------ -------- ----- --- ------ ----- --<br>----- ----- ---------- --- --- ------ ------ ---- -- ------<br>------- --- ------ ----- --- ---- ------- -- ---- --- --<br>------- ------,207544,207523,206482.28,206493,206498.92,207565.52,,0,At
screen,html.Screen,2_1_1_1_1,2021-04-28T16:26:16.801Z,,,,,,,,,,,,,,,,,54,,,,,,,,,,,,,,488.4800000000105,,response,,,,100,,,,,,,Space,keypress(Space),,,,,,,,-- the ---- --- ------ ----- ------- ---- -- --- ------- --<br>------- ---------- ------ -- ----- -- ----- -- ---- ------<br>--- ----- --- --- ------ -------- ----- --- ------ ----- --<br>----- ----- ---------- --- --- ------ ------ ---- -- ------<br>------- --- ------ ----- --- ---- ------- -- ---- --- --<br>------- ------,208073,208054,207548.86,207546,207565.52,208082.42,,1,the
screen,html.Screen,2_1_1_1_2,2021-04-28T16:26:17.247Z,,,,,,,,,,,,,,,,,54,,,,,,,,,,,,,,409.5799999999872,,response,,,,100,,,,,,,Space,keypress(Space),,,,,,,,-- --- time --- ------ ----- ------- ---- -- --- ------- --<br>------- ---------- ------ -- ----- -- ----- -- ---- ------<br>--- ----- --- --- ------ -------- ----- --- ------ ----- --<br>----- ----- ---------- --- --- ------ ------ ---- -- ------<br>------- --- ------ ----- --- ---- ------- -- ---- --- --<br>------- ------,208519,208492,208075.7,208075,208082.42,208532.12,,2,time
screen,html.Screen,2_1_1_1_3,2021-04-28T16:26:17.898Z,,,,,,,,,,,,,,,,,54,,,,,,,,,,,,,,631.8800000000047,,response,,,,100,,,,,,,Space,keypress(Space),,,,,,,,-- --- ---- the ------ ----- ------- ---- -- --- ------- --<br>------- ---------- ------ -- ----- -- ----- -- ---- ------<br>--- ----- --- --- ------ -------- ----- --- ------ ----- --<br>----- ----- ---------- --- --- ------ ------ ---- -- ------<br>------- --- ------ ----- --- ---- ------- -- ---- --- --<br>------- ------,209171,209164,208521.8,208521,208532.12,209182.08,,3,the
screen,html.Screen,2_1_1_1_4,2021-04-28T16:26:18.341Z,,,,,,,,,,,,,,,,,54,,,,,,,,,,,,,,417.9200000000128,,response,,,,100,,,,,,,Space,keypress(Space),,,,,,,,-- --- ---- --- French ----- ------- ---- -- --- ------- --<br>------- ---------- ------ -- ----- -- ----- -- ---- ------<br>--- ----- --- --- ------ -------- ----- --- ------ ----- --<br>----- ----- ---------- --- --- ------ ------ ---- -- ------<br>------- --- ------ ----- --- ---- ------- -- ---- --- --<br>------- ------,209613,209600,209172.64,209172,209182.08,209632.06,,4,French
screen,html.Screen,2_1_1_1_5,2021-04-28T16:26:18.781Z,,,,,,,,,,,,,,,,,54,,,,,,,,,,,,,,406.9400000000023,,response,,,,100,,,,,,,Space,keypress(Space),,,,,,,,-- --- ---- --- ------ crown ------- ---- -- --- ------- --<br>------- ---------- ------ -- ----- -- ----- -- ---- ------<br>--- ----- --- --- ------ -------- ----- --- ------ ----- --<br>----- ----- ---------- --- --- ------ ------ ---- -- ------<br>------- --- ------ ----- --- ---- ------- -- ---- --- --<br>------- ------,210053,210039,209615.82,209614,209632.06,210065.6,,5,crown
screen,html.Screen,2_1_1_1_6,2021-04-28T16:26:19.255Z,,,,,,,,,,,,,,,,,54,,,,,,,,,,,,,,440.3999999999942,,response,,,,100,,,,,,,Space,keypress(Space),,,,,,,,-- --- ---- --- ------ ----- secured ---- -- --- ------- --<br>------- ---------- ------ -- ----- -- ----- -- ---- ------<br>--- ----- --- --- ------ -------- ----- --- ------ ----- --<br>----- ----- ---------- --- --- ------ ------ ---- -- ------<br>------- --- ------ ----- --- ---- ------- -- ---- --- --<br>------- ------,210527,210506,210054.66,210054,210065.6,210548.72,,6,secured
screen,html.Screen,2_1_1_1_7,2021-04-28T16:26:19.733Z,,,,,,,,,,,,,,,,,54,,,,,,,,,,,,,,443.27999999999884,,response,,,,100,,,,,,,Space,keypress(Space),,,,,,,,-- --- ---- --- ------ ----- ------- much -- --- ------- --<br>------- ---------- ------ -- ----- -- ----- -- ---- ------<br>--- ----- --- --- ------ -------- ----- --- ------ ----- --<br>----- ----- ---------- --- --- ------ ------ ---- -- ------<br>------- --- ------ ----- --- ---- ------- -- ---- --- --<br>------- ------,211006,210992,210532.06,210529,210548.72,211015.34,,7,much
screen,html.Screen,2_1_1_1_8,2021-04-28T16:26:20.152Z,,,,,,,,,,,,,,,,,54,,,,,,,,,,,,,,398.6600000000035,,response,,,,100,,,,,,,Space,keypress(Space),,,,,,,,-- --- ---- --- ------ ----- ------- ---- of --- ------- --<br>------- ---------- ------ -- ----- -- ----- -- ---- ------<br>--- ----- --- --- ------ -------- ----- --- ------ ----- --<br>----- ----- ---------- --- --- ------ ------ ---- -- ------<br>------- --- ------ ----- --- ---- ------- -- ---- --- --<br>------- ------,211424,211414,211008.26,211008,211015.34,211431.98,,8,of
screen,html.Screen,2_1_1_1_9,2021-04-28T16:26:20.582Z,,,,,,,,,,,,,,,,,54,,,,,,,,,,,,,,403.0199999999895,,response,,,,100,,,,,,,Space,keypress(Space),,,,,,,,-- --- ---- --- ------ ----- ------- ---- -- its ------- --<br>------- ---------- ------ -- ----- -- ----- -- ---- ------<br>--- ----- --- --- ------ -------- ----- --- ------ ----- --<br>----- ----- ---------- --- --- ------ ------ ---- -- ------<br>------- --- ------ ----- --- ---- ------- -- ---- --- --<br>------- ------,211854,211835,211427.16,211426,211431.98,211865.3,,9,its
screen,html.Screen,2_1_1_1_10,2021-04-28T16:26:21.016Z,,,,,,,,,,,,,,,,,54,,,,,,,,,,,,,,406.70000000001164,,response,,,,100,,,,,,,Space,keypress(Space),,,,,,,,-- --- ---- --- ------ ----- ------- ---- -- --- revenue --<br>------- ---------- ------ -- ----- -- ----- -- ---- ------<br>--- ----- --- --- ------ -------- ----- --- ------ ----- --<br>----- ----- ---------- --- --- ------ ------ ---- -- ------<br>------- --- ------ ----- --- ---- ------- -- ---- --- --<br>------- ------,212289,212272,211857,211856,211865.3,212298.62,,10,revenue
screen,html.Screen,2_1_1_1_11,2021-04-28T16:26:21.567Z,,,,,,,,,,,,,,,,,54,,,,,,,,,,,,,,521.3800000000047,,response,,,,100,,,,,,,Space,keypress(Space),,,,,,,,-- --- ---- --- ------ ----- ------- ---- -- --- ------- by<br>------- ---------- ------ -- ----- -- ----- -- ---- ------<br>--- ----- --- --- ------ -------- ----- --- ------ ----- --<br>----- ----- ---------- --- --- ------ ------ ---- -- ------<br>------- --- ------ ----- --- ---- ------- -- ---- --- --<br>------- ------,212840,212820,212290.48,212290,212298.62,212848.6,,11,by
screen,html.Screen,2_1_1_1_12,2021-04-28T16:26:22.205Z,,,,,,,,,,,,,,,,,54,,,,,,,,,,,,,,611.3999999999942,,response,,,,100,,,,,,,Space,keypress(Space),,,,,,,,-- --- ---- --- ------ ----- ------- ---- -- --- ------- --<br>issuing ---------- ------ -- ----- -- ----- -- ---- ------<br>--- ----- --- --- ------ -------- ----- --- ------ ----- --<br>----- ----- ---------- --- --- ------ ------ ---- -- ------<br>------- --- ------ ----- --- ---- ------- -- ---- --- --<br>------- ------,213477,213460,212840.72,212840,212848.6,213481.88,,12,issuing
screen,html.Screen,2_1_1_1_13,2021-04-28T16:26:22.682Z,,,,,,,,,,,,,,,,,54,,,,,,,,,,,,,,447.11999999999534,,response,,,,100,,,,,,,Space,keypress(Space),,,,,,,,-- --- ---- --- ------ ----- ------- ---- -- --- ------- --<br>------- government ------ -- ----- -- ----- -- ---- ------<br>--- ----- --- --- ------ -------- ----- --- ------ ----- --<br>----- ----- ---------- --- --- ------ ------ ---- -- ------<br>------- --- ------ ----- --- ---- ------- -- ---- --- --<br>------- ------,213953,213929,213478.74,213479,213481.88,213965.2,,13,government
screen,html.Screen,2_1_1_1_14,2021-04-28T16:26:23.121Z,,,,,,,,,,,,,,,,,54,,,,,,,,,,,,,,416.79999999998836,,response,,,,100,,,,,,,Space,keypress(Space),,,,,,,,-- --- ---- --- ------ ----- ------- ---- -- --- ------- --<br>------- ---------- bonds. -- ----- -- ----- -- ---- ------<br>--- ----- --- --- ------ -------- ----- --- ------ ----- --<br>----- ----- ---------- --- --- ------ ------ ---- -- ------<br>------- --- ------ ----- --- ---- ------- -- ---- --- --<br>------- ------,214392,214382,213955.22,213954,213965.2,214398.52,,14,bonds.
screen,html.Screen,2_1_1_1_15,2021-04-28T16:26:24.247Z,,,,,,,,,,,,,,,,,54,,,,,,,,,,,,,,1108.4800000000105,,response,,,,100,,,,,,,Space,keypress(Space),,,,,,,,-- --- ---- --- ------ ----- ------- ---- -- --- ------- --<br>------- ---------- ------ In ----- -- ----- -- ---- ------<br>--- ----- --- --- ------ -------- ----- --- ------ ----- --<br>----- ----- ---------- --- --- ------ ------ ---- -- ------<br>------- --- ------ ----- --- ---- ------- -- ---- --- --<br>------- ------,215519,215507,214394.14,214394,214398.52,215531.82,,15,In
screen,html.Screen,2_1_1_1_16,2021-04-28T16:26:24.720Z,,,,,,,,,,,,,,,,,54,,,,,,,,,,,,,,444.179999999993,,response,,,,100,,,,,,,Space,keypress(Space),,,,,,,,"-- --- ---- --- ------ ----- ------- ---- -- --- ------- --<br>------- ---------- ------ -- 1727, -- ----- -- ---- ------<br>--- ----- --- --- ------ -------- ----- --- ------ ----- --<br>----- ----- ---------- --- --- ------ ------ ---- -- ------<br>------- --- ------ ----- --- ---- ------- -- ---- --- --<br>------- ------",215992,215976,215519.82,215519,215531.82,215998.48,,16,"1727,"
screen,html.Screen,2_1_1_1_17,2021-04-28T16:26:25.399Z,,,,,,,,,,,,,,,,,54,,,,,,,,,,,,,,664.5199999999895,,response,,,,100,,,,,,,Space,keypress(Space),,,,,,,,-- --- ---- --- ------ ----- ------- ---- -- --- ------- --<br>------- ---------- ------ -- ----- in ----- -- ---- ------<br>--- ----- --- --- ------ -------- ----- --- ------ ----- --<br>----- ----- ---------- --- --- ------ ------ ---- -- ------<br>------- --- ------ ----- --- ---- ------- -- ---- --- --<br>------- ------,216671,216663,215993.02,215993,215998.48,216681.76,,17,in
screen,html.Screen,2_1_1_1_18,2021-04-28T16:26:25.858Z,,,,,,,,,,,,,,,,,54,,,,,,,,,,,,,,435.2399999999907,,response,,,,100,,,,,,,Space,keypress(Space),,,,,,,,-- --- ---- --- ------ ----- ------- ---- -- --- ------- --<br>------- ---------- ------ -- ----- -- order -- ---- ------<br>--- ----- --- --- ------ -------- ----- --- ------ ----- --<br>----- ----- ---------- --- --- ------ ------ ---- -- ------<br>------- --- ------ ----- --- ---- ------- -- ---- --- --<br>------- ------,217129,217117,216672.42,216672,216681.76,217148.34,,18,order
screen,html.Screen,2_1_1_1_19,2021-04-28T16:26:26.250Z,,,,,,,,,,,,,,,,,54,,,,,,,,,,,,,,357.6600000000035,,response,,,,100,,,,,,,Space,keypress(Space),,,,,,,,-- --- ---- --- ------ ----- ------- ---- -- --- ------- --<br>------- ---------- ------ -- ----- -- ----- to ---- ------<br>--- ----- --- --- ------ -------- ----- --- ------ ----- --<br>----- ----- ---------- --- --- ------ ------ ---- -- ------<br>------- --- ------ ----- --- ---- ------- -- ---- --- --<br>------- ------,217522,217506,217130.92,217130,217148.34,217531.72,,19,to
screen,html.Screen,2_1_1_1_20,2021-04-28T16:26:26.749Z,,,,,,,,,,,,,,,,,54,,,,,,,,,,,,,,475.27999999999884,,response,,,,100,,,,,,,Space,keypress(Space),,,,,,,,-- --- ---- --- ------ ----- ------- ---- -- --- ------- --<br>------- ---------- ------ -- ----- -- ----- -- save ------<br>--- ----- --- --- ------ -------- ----- --- ------ ----- --<br>----- ----- ---------- --- --- ------ ------ ---- -- ------<br>------- --- ------ ----- --- ---- ------- -- ---- --- --<br>------- ------,218021,218007,217523.12,217523,217531.72,218031.7,,20,save
screen,html.Screen,2_1_1_1_21,2021-04-28T16:26:27.498Z,,,,,,,,,,,,,,,,,54,,,,,,,,,,,,,,725.2999999999884,,response,,,,100,,,,,,,Space,keypress(Space),,,,,,,,"-- --- ---- --- ------ ----- ------- ---- -- --- ------- --<br>------- ---------- ------ -- ----- -- ----- -- ---- money,<br>--- ----- --- --- ------ -------- ----- --- ------ ----- --<br>----- ----- ---------- --- --- ------ ------ ---- -- ------<br>------- --- ------ ----- --- ---- ------- -- ---- --- --<br>------- ------",218771,218757,218022.66,218022,218031.7,218781.66,,21,"money,"
screen,html.Screen,2_1_1_1_22,2021-04-28T16:26:28.086Z,,,,,,,,,,,,,,,,,54,,,,,,,,,,,,,,569.3399999999965,,response,,,,100,,,,,,,Space,keypress(Space),,,,,,,,-- --- ---- --- ------ ----- ------- ---- -- --- ------- --<br>------- ---------- ------ -- ----- -- ----- -- ---- ------<br>the ----- --- --- ------ -------- ----- --- ------ ----- --<br>----- ----- ---------- --- --- ------ ------ ---- -- ------<br>------- --- ------ ----- --- ---- ------- -- ---- --- --<br>------- ------,219359,219351,218772.2,218771,218781.66,219365,,22,the
screen,html.Screen,2_1_1_1_23,2021-04-28T16:26:28.617Z,,,,,,,,,,,,,,,,,54,,,,,,,,,,,,,,502,,response,,,,100,,,,,,,Space,keypress(Space),,,,,,,,-- --- ---- --- ------ ----- ------- ---- -- --- ------- --<br>------- ---------- ------ -- ----- -- ----- -- ---- ------<br>--- state --- --- ------ -------- ----- --- ------ ----- --<br>----- ----- ---------- --- --- ------ ------ ---- -- ------<br>------- --- ------ ----- --- ---- ------- -- ---- --- --<br>------- ------,219889,219867,219360.34,219360,219365,219898.28,,23,state
screen,html.Screen,2_1_1_1_24,2021-04-28T16:26:29.142Z,,,,,,,,,,,,,,,,,54,,,,,,,,,,,,,,498.72000000000116,,response,,,,100,,,,,,,Space,keypress(Space),,,,,,,,-- --- ---- --- ------ ----- ------- ---- -- --- ------- --<br>------- ---------- ------ -- ----- -- ----- -- ---- ------<br>--- ----- cut --- ------ -------- ----- --- ------ ----- --<br>----- ----- ---------- --- --- ------ ------ ---- -- ------<br>------- --- ------ ----- --- ---- ------- -- ---- --- --<br>------- ------,220413,220397,219891.1,219890,219898.28,220431.58,,24,cut
screen,html.Screen,2_1_1_1_25,2021-04-28T16:26:29.592Z,,,,,,,,,,,,,,,,,54,,,,,,,,,,,,,,419.4200000000128,,response,,,,100,,,,,,,Space,keypress(Space),,,,,,,,-- --- ---- --- ------ ----- ------- ---- -- --- ------- --<br>------- ---------- ------ -- ----- -- ----- -- ---- ------<br>--- ----- --- the ------ -------- ----- --- ------ ----- --<br>----- ----- ---------- --- --- ------ ------ ---- -- ------<br>------- --- ------ ----- --- ---- ------- -- ---- --- --<br>------- ------,220863,220851,220415.5,220414,220431.58,220881.54,,25,the
screen,html.Screen,2_1_1_1_26,2021-04-28T16:26:30.306Z,,,,,,,,,,,,,,,,,54,,,,,,,,,,,,,,672.4599999999919,,response,,,,100,,,,,,,Space,keypress(Space),,,,,,,,-- --- ---- --- ------ ----- ------- ---- -- --- ------- --<br>------- ---------- ------ -- ----- -- ----- -- ---- ------<br>--- ----- --- --- bonds' -------- ----- --- ------ ----- --<br>----- ----- ---------- --- --- ------ ------ ---- -- ------<br>------- --- ------ ----- --- ---- ------- -- ---- --- --<br>------- ------,221578,221554,220865.38,220864,220881.54,221581.52,,26,bonds'
screen,html.Screen,2_1_1_1_27,2021-04-28T16:26:30.856Z,,,,,,,,,,,,,,,,,54,,,,,,,,,,,,,,535.4800000000105,,response,,,,100,,,,,,,Space,keypress(Space),,,,,,,,-- --- ---- --- ------ ----- ------- ---- -- --- ------- --<br>------- ---------- ------ -- ----- -- ----- -- ---- ------<br>--- ----- --- --- ------ interest ----- --- ------ ----- --<br>----- ----- ---------- --- --- ------ ------ ---- -- ------<br>------- --- ------ ----- --- ---- ------- -- ---- --- --<br>------- ------,222128,222117,221579.18,221579,221581.52,222148.12,,27,interest
screen,html.Screen,2_1_1_1_28,2021-04-28T16:26:31.589Z,,,,,,,,,,,,,,,,,54,,,,,,,,,,,,,,702.8800000000047,,response,,,,100,,,,,,,Space,keypress(Space),,,,,,,,-- --- ---- --- ------ ----- ------- ---- -- --- ------- --<br>------- ---------- ------ -- ----- -- ----- -- ---- ------<br>--- ----- --- --- ------ -------- rate. --- ------ ----- --<br>----- ----- ---------- --- --- ------ ------ ---- -- ------<br>------- --- ------ ----- --- ---- ------- -- ---- --- --<br>------- ------,222861,222851,222130.54,222130,222148.12,222864.8,,28,rate.
screen,html.Screen,2_1_1_1_29,2021-04-28T16:26:32.098Z,,,,,,,,,,,,,,,,,54,,,,,,,,,,,,,,486.20000000001164,,response,,,,100,,,,,,,Space,keypress(Space),,,,,,,,-- --- ---- --- ------ ----- ------- ---- -- --- ------- --<br>------- ---------- ------ -- ----- -- ----- -- ---- ------<br>--- ----- --- --- ------ -------- ----- The ------ ----- --<br>----- ----- ---------- --- --- ------ ------ ---- -- ------<br>------- --- ------ ----- --- ---- ------- -- ---- --- --<br>------- ------,223370,223351,222862.44,222862,222864.8,223381.46,,29,The
screen,html.Screen,2_1_1_1_30,2021-04-28T16:26:32.530Z,,,,,,,,,,,,,,,,,54,,,,,,,,,,,,,,407.54000000000815,,response,,,,100,,,,,,,Space,keypress(Space),,,,,,,,-- --- ---- --- ------ ----- ------- ---- -- --- ------- --<br>------- ---------- ------ -- ----- -- ----- -- ---- ------<br>--- ----- --- --- ------ -------- ----- --- market ----- --<br>----- ----- ---------- --- --- ------ ------ ---- -- ------<br>------- --- ------ ----- --- ---- ------- -- ---- --- --<br>------- ------,223803,223789,223371.54,223371,223381.46,223814.78,,30,market
screen,html.Screen,2_1_1_1_31,2021-04-28T16:26:32.961Z,,,,,,,,,,,,,,,,,54,,,,,,,,,,,,,,411.22000000000116,,response,,,,100,,,,,,,Space,keypress(Space),,,,,,,,-- --- ---- --- ------ ----- ------- ---- -- --- ------- --<br>------- ---------- ------ -- ----- -- ----- -- ---- ------<br>--- ----- --- --- ------ -------- ----- --- ------ value --<br>----- ----- ---------- --- --- ------ ------ ---- -- ------<br>------- --- ------ ----- --- ---- ------- -- ---- --- --<br>------- ------,224233,224226,223804.44,223804,223814.78,224248.04,,31,value
screen,html.Screen,2_1_1_1_32,2021-04-28T16:26:33.335Z,,,,,,,,,,,,,,,,,54,,,,,,,,,,,,,,351.95999999999185,,response,,,,100,,,,,,,Space,keypress(Space),,,,,,,,-- --- ---- --- ------ ----- ------- ---- -- --- ------- --<br>------- ---------- ------ -- ----- -- ----- -- ---- ------<br>--- ----- --- --- ------ -------- ----- --- ------ ----- of<br>----- ----- ---------- --- --- ------ ------ ---- -- ------<br>------- --- ------ ----- --- ---- ------- -- ---- --- --<br>------- ------,224607,224600,224235.02,224234,224248.04,224614.78,,32,of
screen,html.Screen,2_1_1_1_33,2021-04-28T16:26:33.735Z,,,,,,,,,,,,,,,,,54,,,,,,,,,,,,,,377.22000000000116,,response,,,,100,,,,,,,Space,keypress(Space),,,,,,,,-- --- ---- --- ------ ----- ------- ---- -- --- ------- --<br>------- ---------- ------ -- ----- -- ----- -- ---- ------<br>--- ----- --- --- ------ -------- ----- --- ------ ----- --<br>these ----- ---------- --- --- ------ ------ ---- -- ------<br>------- --- ------ ----- --- ---- ------- -- ---- --- --<br>------- ------,225007,224992,224608.78,224608,224614.78,225014.76,,33,these
screen,html.Screen,2_1_1_1_34,2021-04-28T16:26:34.143Z,,,,,,,,,,,,,,,,,54,,,,,,,,,,,,,,382.2399999999907,,response,,,,100,,,,,,,Space,keypress(Space),,,,,,,,-- --- ---- --- ------ ----- ------- ---- -- --- ------- --<br>------- ---------- ------ -- ----- -- ----- -- ---- ------<br>--- ----- --- --- ------ -------- ----- --- ------ ----- --<br>----- bonds ---------- --- --- ------ ------ ---- -- ------<br>------- --- ------ ----- --- ---- ------- -- ---- --- --<br>------- ------,225415,225397,225008.82,225008,225014.76,225431.38,,34,bonds
screen,html.Screen,2_1_1_1_35,2021-04-28T16:26:34.709Z,,,,,,,,,,,,,,,,,54,,,,,,,,,,,,,,544.6199999999953,,response,,,,100,,,,,,,Space,keypress(Space),,,,,,,,"-- --- ---- --- ------ ----- ------- ---- -- --- ------- --<br>------- ---------- ------ -- ----- -- ----- -- ---- ------<br>--- ----- --- --- ------ -------- ----- --- ------ ----- --<br>----- ----- plummeted, --- --- ------ ------ ---- -- ------<br>------- --- ------ ----- --- ---- ------- -- ---- --- --<br>------- ------",225982,225976,225417.12,225416,225431.38,225998.02,,35,"plummeted,"
screen,html.Screen,2_1_1_1_36,2021-04-28T16:26:35.318Z,,,,,,,,,,,,,,,,,54,,,,,,,,,,,,,,586.9800000000105,,response,,,,100,,,,,,,Space,keypress(Space),,,,,,,,-- --- ---- --- ------ ----- ------- ---- -- --- ------- --<br>------- ---------- ------ -- ----- -- ----- -- ---- ------<br>--- ----- --- --- ------ -------- ----- --- ------ ----- --<br>----- ----- ---------- and --- ------ ------ ---- -- ------<br>------- --- ------ ----- --- ---- ------- -- ---- --- --<br>------- ------,226589,226585,225983.34,225983,225998.02,226602.84,,36,and
screen,html.Screen,2_1_1_1_37,2021-04-28T16:26:35.766Z,,,,,,,,,,,,,,,,,54,,,,,,,,,,,,,,419.1600000000035,,response,,,,100,,,,,,,Space,keypress(Space),,,,,,,,-- --- ---- --- ------ ----- ------- ---- -- --- ------- --<br>------- ---------- ------ -- ----- -- ----- -- ---- ------<br>--- ----- --- --- ------ -------- ----- --- ------ ----- --<br>----- ----- ---------- --- the ------ ------ ---- -- ------<br>------- --- ------ ----- --- ---- ------- -- ---- --- --<br>------- ------,227038,227022,226590.7,226590,226602.84,227047.96,,37,the
screen,html.Screen,2_1_1_1_38,2021-04-28T16:26:36.234Z,,,,,,,,,,,,,,,,,54,,,,,,,,,,,,,,444.04000000000815,,response,,,,100,,,,,,,Space,keypress(Space),,,,,,,,-- --- ---- --- ------ ----- ------- ---- -- --- ------- --<br>------- ---------- ------ -- ----- -- ----- -- ---- ------<br>--- ----- --- --- ------ -------- ----- --- ------ ----- --<br>----- ----- ---------- --- --- market ------ ---- -- ------<br>------- --- ------ ----- --- ---- ------- -- ---- --- --<br>------- ------,227506,227492,227039.38,227038,227047.96,227514.6,,38,market
screen,html.Screen,2_1_1_1_39,2021-04-28T16:26:36.969Z,,,,,,,,,,,,,,,,,54,,,,,,,,,,,,,,711.3999999999942,,response,,,,100,,,,,,,Space,keypress(Space),,,,,,,,-- --- ---- --- ------ ----- ------- ---- -- --- ------- --<br>------- ---------- ------ -- ----- -- ----- -- ---- ------<br>--- ----- --- --- ------ -------- ----- --- ------ ----- --<br>----- ----- ---------- --- --- ------ became ---- -- ------<br>------- --- ------ ----- --- ---- ------- -- ---- --- --<br>------- ------,228241,228226,227507.7,227507,227514.6,228247.9,,39,became
screen,html.Screen,2_1_1_1_40,2021-04-28T16:26:37.636Z,,,,,,,,,,,,,,,,,54,,,,,,,,,,,,,,650.1000000000058,,response,,,,100,,,,,,,Space,keypress(Space),,,,,,,,-- --- ---- --- ------ ----- ------- ---- -- --- ------- --<br>------- ---------- ------ -- ----- -- ----- -- ---- ------<br>--- ----- --- --- ------ -------- ----- --- ------ ----- --<br>----- ----- ---------- --- --- ------ ------ wary -- ------<br>------- --- ------ ----- --- ---- ------- -- ---- --- --<br>------- ------,228909,228898,228242,228242,228247.9,228914.58,,40,wary
screen,html.Screen,2_1_1_1_41,2021-04-28T16:26:38.019Z,,,,,,,,,,,,,,,,,54,,,,,,,,,,,,,,357.4200000000128,,response,,,,100,,,,,,,Space,keypress(Space),,,,,,,,-- --- ---- --- ------ ----- ------- ---- -- --- ------- --<br>------- ---------- ------ -- ----- -- ----- -- ---- ------<br>--- ----- --- --- ------ -------- ----- --- ------ ----- --<br>----- ----- ---------- --- --- ------ ------ ---- of ------<br>------- --- ------ ----- --- ---- ------- -- ---- --- --<br>------- ------,229291,229272,228910.42,228910,228914.58,229297.88,,41,of
screen,html.Screen,2_1_1_1_42,2021-04-28T16:26:38.479Z,,,,,,,,,,,,,,,,,54,,,,,,,,,,,,,,444.11999999999534,,response,,,,100,,,,,,,Space,keypress(Space),,,,,,,,-- --- ---- --- ------ ----- ------- ---- -- --- ------- --<br>------- ---------- ------ -- ----- -- ----- -- ---- ------<br>--- ----- --- --- ------ -------- ----- --- ------ ----- --<br>----- ----- ---------- --- --- ------ ------ ---- -- French<br>------- --- ------ ----- --- ---- ------- -- ---- --- --<br>------- ------,229752,229742,229292.78,229292,229297.88,229764.52,,42,French
screen,html.Screen,2_1_1_1_43,2021-04-28T16:26:39.484Z,,,,,,,,,,,,,,,,,54,,,,,,,,,,,,,,977.4800000000105,,response,,,,100,,,,,,,Space,keypress(Space),,,,,,,,-- --- ---- --- ------ ----- ------- ---- -- --- ------- --<br>------- ---------- ------ -- ----- -- ----- -- ---- ------<br>--- ----- --- --- ------ -------- ----- --- ------ ----- --<br>----- ----- ---------- --- --- ------ ------ ---- -- ------<br>credit. --- ------ ----- --- ---- ------- -- ---- --- --<br>------- ------,230757,230742,229752.98,229753,229764.52,230764.46,,43,credit.
screen,html.Screen,2_1_1_1_44,2021-04-28T16:26:40.132Z,,,,,,,,,,,,,,,,,54,,,,,,,,,,,,,,617.5400000000081,,response,,,,100,,,,,,,Space,keypress(Space),,,,,,,,-- --- ---- --- ------ ----- ------- ---- -- --- ------- --<br>------- ---------- ------ -- ----- -- ----- -- ---- ------<br>--- ----- --- --- ------ -------- ----- --- ------ ----- --<br>----- ----- ---------- --- --- ------ ------ ---- -- ------<br>------- The ------ ----- --- ---- ------- -- ---- --- --<br>------- ------,231404,231382,230758.26,230758,230764.46,231414.38,,44,The
screen,html.Screen,2_1_1_1_45,2021-04-28T16:26:40.667Z,,,,,,,,,,,,,,,,,54,,,,,,,,,,,,,,514.6199999999953,,response,,,,100,,,,,,,Space,keypress(Space),,,,,,,,-- --- ---- --- ------ ----- ------- ---- -- --- ------- --<br>------- ---------- ------ -- ----- -- ----- -- ---- ------<br>--- ----- --- --- ------ -------- ----- --- ------ ----- --<br>----- ----- ---------- --- --- ------ ------ ---- -- ------<br>------- --- French ----- --- ---- ------- -- ---- --- --<br>------- ------,231939,231929,231405.06,231405,231414.38,231947.74,,45,French
screen,html.Screen,2_1_1_1_46,2021-04-28T16:26:41.335Z,,,,,,,,,,,,,,,,,54,,,,,,,,,,,,,,636.2600000000093,,response,,,,100,,,,,,,Space,keypress(Space),,,,,,,,-- --- ---- --- ------ ----- ------- ---- -- --- ------- --<br>------- ---------- ------ -- ----- -- ----- -- ---- ------<br>--- ----- --- --- ------ -------- ----- --- ------ ----- --<br>----- ----- ---------- --- --- ------ ------ ---- -- ------<br>------- --- ------ state --- ---- ------- -- ---- --- --<br>------- ------,232608,232584,231940.28,231939,231947.74,232614.64,,46,state
screen,html.Screen,2_1_1_1_47,2021-04-28T16:26:41.854Z,,,,,,,,,,,,,,,,,54,,,,,,,,,,,,,,502.35999999998603,,response,,,,100,,,,,,,Space,keypress(Space),,,,,,,,-- --- ---- --- ------ ----- ------- ---- -- --- ------- --<br>------- ---------- ------ -- ----- -- ----- -- ---- ------<br>--- ----- --- --- ------ -------- ----- --- ------ ----- --<br>----- ----- ---------- --- --- ------ ------ ---- -- ------<br>------- --- ------ ----- was ---- ------- -- ---- --- --<br>------- ------,233126,233117,232609.18,232609,232614.64,233131.04,,47,was
screen,html.Screen,2_1_1_1_48,2021-04-28T16:26:42.415Z,,,,,,,,,,,,,,,,,54,,,,,,,,,,,,,,532.9599999999919,,response,,,,100,,,,,,,Space,keypress(Space),,,,,,,,-- --- ---- --- ------ ----- ------- ---- -- --- ------- --<br>------- ---------- ------ -- ----- -- ----- -- ---- ------<br>--- ----- --- --- ------ -------- ----- --- ------ ----- --<br>----- ----- ---------- --- --- ------ ------ ---- -- ------<br>------- --- ------ ----- --- left ------- -- ---- --- --<br>------- ------,233687,233664,233128.02,233127,233131.04,233697.66,,48,left
screen,html.Screen,2_1_1_1_49,2021-04-28T16:26:43.094Z,,,,,,,,,,,,,,,,,54,,,,,,,,,,,,,,652.3399999999965,,response,,,,100,,,,,,,Space,keypress(Space),,,,,,,,-- --- ---- --- ------ ----- ------- ---- -- --- ------- --<br>------- ---------- ------ -- ----- -- ----- -- ---- ------<br>--- ----- --- --- ------ -------- ----- --- ------ ----- --<br>----- ----- ---------- --- --- ------ ------ ---- -- ------<br>------- --- ------ ----- --- ---- without -- ---- --- --<br>------- ------,234366,234350,233688.92,233688,233697.66,234380.94,,49,without
screen,html.Screen,2_1_1_1_50,2021-04-28T16:26:43.501Z,,,,,,,,,,,,,,,,,54,,,,,,,,,,,,,,376.0599999999977,,response,,,,100,,,,,,,Space,keypress(Space),,,,,,,,-- --- ---- --- ------ ----- ------- ---- -- --- ------- --<br>------- ---------- ------ -- ----- -- ----- -- ---- ------<br>--- ----- --- --- ------ -------- ----- --- ------ ----- --<br>----- ----- ---------- --- --- ------ ------ ---- -- ------<br>------- --- ------ ----- --- ---- ------- an ---- --- --<br>------- ------,234773,234757,234368.08,234368,234380.94,234780.94,,50,an
screen,html.Screen,2_1_1_1_51,2021-04-28T16:26:43.976Z,,,,,,,,,,,,,,,,,54,,,,,,,,,,,,,,444.0599999999977,,response,,,,100,,,,,,,Space,keypress(Space),,,,,,,,-- --- ---- --- ------ ----- ------- ---- -- --- ------- --<br>------- ---------- ------ -- ----- -- ----- -- ---- ------<br>--- ----- --- --- ------ -------- ----- --- ------ ----- --<br>----- ----- ---------- --- --- ------ ------ ---- -- ------<br>------- --- ------ ----- --- ---- ------- -- easy --- --<br>------- ------,235250,235225,234774.14,234774,234780.94,235264.26,,51,easy
screen,html.Screen,2_1_1_1_52,2021-04-28T16:26:44.399Z,,,,,,,,,,,,,,,,,54,,,,,,,,,,,,,,399.7399999999907,,response,,,,100,,,,,,,Space,keypress(Space),,,,,,,,-- --- ---- --- ------ ----- ------- ---- -- --- ------- --<br>------- ---------- ------ -- ----- -- ----- -- ---- ------<br>--- ----- --- --- ------ -------- ----- --- ------ ----- --<br>----- ----- ---------- --- --- ------ ------ ---- -- ------<br>------- --- ------ ----- --- ---- ------- -- ---- way --<br>------- ------,235672,235664,235250.28,235250,235264.26,235680.88,,52,way
screen,html.Screen,2_1_1_1_53,2021-04-28T16:26:44.822Z,,,,,,,,,,,,,,,,,54,,,,,,,,,,,,,,404.11999999999534,,response,,,,100,,,,,,,Space,keypress(Space),,,,,,,,-- --- ---- --- ------ ----- ------- ---- -- --- ------- --<br>------- ---------- ------ -- ----- -- ----- -- ---- ------<br>--- ----- --- --- ------ -------- ----- --- ------ ----- --<br>----- ----- ---------- --- --- ------ ------ ---- -- ------<br>------- --- ------ ----- --- ---- ------- -- ---- --- of<br>------- ------,236095,236085,235672.3,235672,235680.88,236114.18,,53,of
screen,html.Screen,2_1_1_1_54,2021-04-28T16:26:45.313Z,,,,,,,,,,,,,,,,,54,,,,,,,,,,,,,,454.820000000007,,response,,,,100,,,,,,,Space,keypress(Space),,,,,,,,-- --- ---- --- ------ ----- ------- ---- -- --- ------- --<br>------- ---------- ------ -- ----- -- ----- -- ---- ------<br>--- ----- --- --- ------ -------- ----- --- ------ ----- --<br>----- ----- ---------- --- --- ------ ------ ---- -- ------<br>------- --- ------ ----- --- ---- ------- -- ---- --- --<br>raising ------,236586,236569,236096.42,236096,236114.18,236597.52,,54,raising
screen,html.Screen,2_1_1_1_55,2021-04-28T16:26:46.069Z,,,,,,,,,,,,,,,,,54,,,,,,,,,,,,,,721.4800000000105,,response,,,,100,,,,,,,Space,keypress(Space),,,,,,,,-- --- ---- --- ------ ----- ------- ---- -- --- ------- --<br>------- ---------- ------ -- ----- -- ----- -- ---- ------<br>--- ----- --- --- ------ -------- ----- --- ------ ----- --<br>----- ----- ---------- --- --- ------ ------ ---- -- ------<br>------- --- ------ ----- --- ---- ------- -- ---- --- --<br>------- money.,237342,237319,236587.36,236587,236597.52,237364.18,,55,money.
Item 100,flow.Loop,2_1_1_1,2021-04-28T16:26:46.071Z,,,,,,,,,,,,,,,,,,,,,,,,,,,,,,,30820.079999999987,,completion,,,,,A,,,,,,,,,,,silence,,,,,237343,237319,206482.28,206492,206498.92,237364.18,,,
Question 1,html.Screen,2_1_1_2,2021-04-28T16:26:48.882Z,,,,,,,,,,,,,,,,,,,,,,,,,,,,true,TRUE,,2766.820000000007,,response,,,,100,A,,,,,,TRUE,click #choice-1,,,,silence,,,,,240153,240131,237347.5,237344,237364.18,240180.66,,,
Question 2,html.Screen,2_1_1_3,2021-04-28T16:26:54.811Z,,,,,,,,,,,,,,,,,,,,,,,,,,,,true,FALSE,,5889.3399999999965,,response,,,,100,A,,,,,,FALSE,click #choice-2,,,,silence,,,,,246084,246070,240164.06,240154,240180.66,246097.12,,,
Item 100,flow.Sequence,2_1_1,2021-04-28T16:26:54.813Z,,,,,,,,,,,,,,,,,,,,,,,,,,,,,,,49570.640000000014,,completion,,,,,,,,,,,,,,,,,,,,,246085,246070,196482.68,196488,196499.36,246097.12,,,
End of Practice,html.Page,2_1_2,2021-04-28T16:27:01.602Z,,,,,,,,,,,,,,,,,,,,,,,,,,,,,,,6771.880000000005,,form submission,,,,,,,,,,,,,,,,,,,,,252875,252869,246080.46,246087,246097.12,252880.1,,,
Practice,flow.Sequence,2_1,2021-04-28T16:27:01.603Z,,,,,,,,,,,,,,,,,,,,,,,,,,,,,,,109984.06,,completion,,,,,,,,,,,,,,,,,,,,,252876,252869,142868.28,142885,142884.94,252880.1,,,
Trap_instruction,html.Page,2_2_0,2021-04-28T16:27:06.640Z,,,,,,,,,,,,,,,,,,,,,,,,,,,,,,,5027.899999999994,,form submission,,,,,,,,,,,,,,,,,,,,,257912,257908,252863.42,252878,252880.1,257996.5,,,
trap_trial,html.Screen,2_2_1,2021-04-28T16:27:09.417Z,,,,,,,,,,,,,,,,,,,,,,,,,,,,true,1,,2681.5,,response,,,,,,,,,,,1,click #choice-1,,,,,,,,,260689,260678,257979.84,257913,257996.5,260729.74,,,
end of trap trial,html.Page,2_2_2,2021-04-28T16:27:11.783Z,,,,,,,,,,,,,,,,,,,,,,,,,,,,,,,2320.2600000000093,,form submission,,,,,,,,,,,,,,,,,,,,,263055,263050,260696.42,260690,260729.74,263062.94,,,
Trap 1,flow.Sequence,2_2,2021-04-28T16:27:11.787Z,,,,,,,,,,,,,,,,,,,,,,,,,,,,,,,10169.899999999994,,completion,,,,,,,,,,,,,,,,,,,,,263059,263050,252863.42,252878,252880.1,263062.94,,,
Standby,html.Page,2_3_0,2021-04-28T16:27:19.781Z,,,,,,,,,,,,,,,,,,,,,,,,,,,,,,,8016.419999999984,,timeout,,,,,,,,,,,,,,,,,,,,,271053,271046.04,263046.28,263060,263062.94,271079.36,,,
Holding screen,html.Screen,2_3_1_0_0,2021-04-28T16:27:26.793Z,,,,,,,,,,,,,,,,,,,,,,,,,,,,,,,6999.660000000033,,timeout,,,,,,,,,,,,,,,,,,,,,278065,278062.36,271046.04,271060,271079.36,278079.02,,,
screen,html.Screen,2_3_1_0_1_0,2021-04-28T16:27:28.121Z,,,,,,,,,,,,,,,,,2,,,,,,,,,,,,,,1302.9799999999814,,response,,,,1,A,,,,,,Space,keypress(Space),,,,silence,,,,Two ---- ------ --- ------- ---------- ------- ----------<br>--- --------- --- ----------- ------- ----- ------- ---<br>--------- ---- -- --- ---- -- --------- -- ---- -------<br>-- --------- ------ --- ----- ------ ---- --- --------- --<br>------ - ---- -- --- ----------- ------- ---- ----- -----<br>--- -------- - ------ ---- -- ----- ---- --- --- -----------<br>-- -------,279395,279382,278062.36,278069,278079.02,279412.32,,0,Two
screen,html.Screen,2_3_1_0_1_1,2021-04-28T16:27:28.908Z,,,,,,,,,,,,,,,,,2,,,,,,,,,,,,,,750.679999999993,,response,,,,1,A,,,,,,Space,keypress(Space),,,,silence,,,,--- days ------ --- ------- ---------- ------- ----------<br>--- --------- --- ----------- ------- ----- ------- ---<br>--------- ---- -- --- ---- -- --------- -- ---- -------<br>-- --------- ------ --- ----- ------ ---- --- --------- --<br>------ - ---- -- --- ----------- ------- ---- ----- -----<br>--- -------- - ------ ---- -- ----- ---- --- --- -----------<br>-- -------,280180,280163,279396.8,279395,279412.32,280195.54,,1,days
screen,html.Screen,2_3_1_0_1_2,2021-04-28T16:27:29.699Z,,,,,,,,,,,,,,,,,2,,,,,,,,,,,,,,764.460000000021,,response,,,,1,A,,,,,,Space,keypress(Space),,,,silence,,,,"--- ---- later, --- ------- ---------- ------- ----------<br>--- --------- --- ----------- ------- ----- ------- ---<br>--------- ---- -- --- ---- -- --------- -- ---- -------<br>-- --------- ------ --- ----- ------ ---- --- --------- --<br>------ - ---- -- --- ----------- ------- ---- ----- -----<br>--- -------- - ------ ---- -- ----- ---- --- --- -----------<br>-- -------",280971,280960,280182.38,280181,280195.54,280978.92,,2,"later,"
screen,html.Screen,2_3_1_0_1_3,2021-04-28T16:27:30.177Z,,,,,,,,,,,,,,,,,2,,,,,,,,,,,,,,449.0800000000163,,response,,,,1,A,,,,,,Space,keypress(Space),,,,silence,,,,--- ---- ------ the ------- ---------- ------- ----------<br>--- --------- --- ----------- ------- ----- ------- ---<br>--------- ---- -- --- ---- -- --------- -- ---- -------<br>-- --------- ------ --- ----- ------ ---- --- --------- --<br>------ - ---- -- --- ----------- ------- ---- ----- -----<br>--- -------- - ------ ---- -- ----- ---- --- --- -----------<br>-- -------,281449,281428,280972.74,280972,280978.92,281462.18,,3,the
screen,html.Screen,2_3_1_0_1_4,2021-04-28T16:27:30.767Z,,,,,,,,,,,,,,,,,2,,,,,,,,,,,,,,560.820000000007,,response,,,,1,A,,,,,,Space,keypress(Space),,,,silence,,,,--- ---- ------ --- British ---------- ------- ----------<br>--- --------- --- ----------- ------- ----- ------- ---<br>--------- ---- -- --- ---- -- --------- -- ---- -------<br>-- --------- ------ --- ----- ------ ---- --- --------- --<br>------ - ---- -- --- ----------- ------- ---- ----- -----<br>--- -------- - ------ ---- -- ----- ---- --- --- -----------<br>-- -------,282040,282023,281451.82,281451,281462.18,282062.18,,4,British
screen,html.Screen,2_3_1_0_1_5,2021-04-28T16:27:31.487Z,,,,,,,,,,,,,,,,,2,,,,,,,,,,,,,,678.820000000007,,response,,,,1,A,,,,,,Space,keypress(Space),,,,silence,,,,--- ---- ------ --- ------- astronomer ------- ----------<br>--- --------- --- ----------- ------- ----- ------- ---<br>--------- ---- -- --- ---- -- --------- -- ---- -------<br>-- --------- ------ --- ----- ------ ---- --- --------- --<br>------ - ---- -- --- ----------- ------- ---- ----- -----<br>--- -------- - ------ ---- -- ----- ---- --- --- -----------<br>-- -------,282759,282741,282045.52,282042,282062.18,282778.72,,5,astronomer
screen,html.Screen,2_3_1_0_1_6,2021-04-28T16:27:32.215Z,,,,,,,,,,,,,,,,,2,,,,,,,,,,,,,,696.2800000000279,,response,,,,1,A,,,,,,Space,keypress(Space),,,,silence,,,,--- ---- ------ --- ------- ---------- Richard ----------<br>--- --------- --- ----------- ------- ----- ------- ---<br>--------- ---- -- --- ---- -- --------- -- ---- -------<br>-- --------- ------ --- ----- ------ ---- --- --------- --<br>------ - ---- -- --- ----------- ------- ---- ----- -----<br>--- -------- - ------ ---- -- ----- ---- --- --- -----------<br>-- -------,283487,283475,282761.34,282761,282778.72,283495.46,,6,Richard
screen,html.Screen,2_3_1_0_1_7,2021-04-28T16:27:33.024Z,,,,,,,,,,,,,,,,,2,,,,,,,,,,,,,,793.539999999979,,response,,,,1,A,,,,,,Space,keypress(Space),,,,silence,,,,--- ---- ------ --- ------- ---------- ------- Carrington<br>--- --------- --- ----------- ------- ----- ------- ---<br>--------- ---- -- --- ---- -- --------- -- ---- -------<br>-- --------- ------ --- ----- ------ ---- --- --------- --<br>------ - ---- -- --- ----------- ------- ---- ----- -----<br>--- -------- - ------ ---- -- ----- ---- --- --- -----------<br>-- -------,284297,284289,283488.66,283488,283495.46,284312.22,,7,Carrington
screen,html.Screen,2_3_1_0_1_8,2021-04-28T16:27:33.542Z,,,,,,,,,,,,,,,,,2,,,,,,,,,,,,,,490.78000000002794,,response,,,,1,A,,,,,,Space,keypress(Space),,,,silence,,,,--- ---- ------ --- ------- ---------- ------- ----------<br>was --------- --- ----------- ------- ----- ------- ---<br>--------- ---- -- --- ---- -- --------- -- ---- -------<br>-- --------- ------ --- ----- ------ ---- --- --------- --<br>------ - ---- -- --- ----------- ------- ---- ----- -----<br>--- -------- - ------ ---- -- ----- ---- --- --- -----------<br>-- -------,284814,284803,284299.38,284299,284312.22,284828.66,,8,was
screen,html.Screen,2_3_1_0_1_9,2021-04-28T16:27:34.174Z,,,,,,,,,,,,,,,,,2,,,,,,,,,,,,,,599.3400000000256,,response,,,,1,A,,,,,,Space,keypress(Space),,,,silence,,,,--- ---- ------ --- ------- ---------- ------- ----------<br>--- observing --- ----------- ------- ----- ------- ---<br>--------- ---- -- --- ---- -- --------- -- ---- -------<br>-- --------- ------ --- ----- ------ ---- --- --------- --<br>------ - ---- -- --- ----------- ------- ---- ----- -----<br>--- -------- - ------ ---- -- ----- ---- --- --- -----------<br>-- -------,285446,285428,284817.08,284816,284828.66,285461.96,,9,observing
screen,html.Screen,2_3_1_0_1_10,2021-04-28T16:27:34.588Z,,,,,,,,,,,,,,,,,2,,,,,,,,,,,,,,373.03999999997905,,response,,,,1,A,,,,,,Space,keypress(Space),,,,silence,,,,--- ---- ------ --- ------- ---------- ------- ----------<br>--- --------- the ----------- ------- ----- ------- ---<br>--------- ---- -- --- ---- -- --------- -- ---- -------<br>-- --------- ------ --- ----- ------ ---- --- --------- --<br>------ - ---- -- --- ----------- ------- ---- ----- -----<br>--- -------- - ------ ---- -- ----- ---- --- --- -----------<br>-- -------,285861,285835,285448.44,285448,285461.96,285878.6,,10,the
screen,html.Screen,2_3_1_0_1_11,2021-04-28T16:27:35.199Z,,,,,,,,,,,,,,,,,2,,,,,,,,,,,,,,581.4000000000233,,response,,,,1,A,,,,,,Space,keypress(Space),,,,silence,,,,--- ---- ------ --- ------- ---------- ------- ----------<br>--- --------- --- interesting ------- ----- ------- ---<br>--------- ---- -- --- ---- -- --------- -- ---- -------<br>-- --------- ------ --- ----- ------ ---- --- --------- --<br>------ - ---- -- --- ----------- ------- ---- ----- -----<br>--- -------- - ------ ---- -- ----- ---- --- --- -----------<br>-- -------,286471,286460,285861.7,285861,285878.6,286478.66,,11,interesting
screen,html.Screen,2_3_1_0_1_12,2021-04-28T16:27:35.795Z,,,,,,,,,,,,,,,,,2,,,,,,,,,,,,,,574.3400000000256,,response,,,,1,A,,,,,,Space,keypress(Space),,,,silence,,,,--- ---- ------ --- ------- ---------- ------- ----------<br>--- --------- --- ----------- sunspot ----- ------- ---<br>--------- ---- -- --- ---- -- --------- -- ---- -------<br>-- --------- ------ --- ----- ------ ---- --- --------- --<br>------ - ---- -- --- ----------- ------- ---- ----- -----<br>--- -------- - ------ ---- -- ----- ---- --- --- -----------<br>-- -------,287068,287053,286472.88,286472,286478.66,287078.64,,12,sunspot
screen,html.Screen,2_3_1_0_1_13,2021-04-28T16:27:36.300Z,,,,,,,,,,,,,,,,,2,,,,,,,,,,,,,,475.35999999998603,,response,,,,1,A,,,,,,Space,keypress(Space),,,,silence,,,,--- ---- ------ --- ------- ---------- ------- ----------<br>--- --------- --- ----------- ------- group ------- ---<br>--------- ---- -- --- ---- -- --------- -- ---- -------<br>-- --------- ------ --- ----- ------ ---- --- --------- --<br>------ - ---- -- --- ----------- ------- ---- ----- -----<br>--- -------- - ------ ---- -- ----- ---- --- --- -----------<br>-- -------,287572,287554,287068.9,287069,287078.64,287578.6,,13,group
screen,html.Screen,2_3_1_0_1_14,2021-04-28T16:27:36.932Z,,,,,,,,,,,,,,,,,2,,,,,,,,,,,,,,616.4000000000233,,response,,,,1,A,,,,,,Space,keypress(Space),,,,silence,,,,--- ---- ------ --- ------- ---------- ------- ----------<br>--- --------- --- ----------- ------- ----- through ---<br>--------- ---- -- --- ---- -- --------- -- ---- -------<br>-- --------- ------ --- ----- ------ ---- --- --------- --<br>------ - ---- -- --- ----------- ------- ---- ----- -----<br>--- -------- - ------ ---- -- ----- ---- --- --- -----------<br>-- -------,288205,288195,287573.52,287573,287578.6,288211.92,,14,through
screen,html.Screen,2_3_1_0_1_15,2021-04-28T16:27:37.330Z,,,,,,,,,,,,,,,,,2,,,,,,,,,,,,,,373.0800000000163,,response,,,,1,A,,,,,,Space,keypress(Space),,,,silence,,,,--- ---- ------ --- ------- ---------- ------- ----------<br>--- --------- --- ----------- ------- ----- ------- his<br>--------- ---- -- --- ---- -- --------- -- ---- -------<br>-- --------- ------ --- ----- ------ ---- --- --------- --<br>------ - ---- -- --- ----------- ------- ---- ----- -----<br>--- -------- - ------ ---- -- ----- ---- --- --- -----------<br>-- -------,288602,288585,288206.82,288206,288211.92,288611.86,,15,his
screen,html.Screen,2_3_1_0_1_16,2021-04-28T16:27:38.248Z,,,,,,,,,,,,,,,,,2,,,,,,,,,,,,,,894.140000000014,,response,,,,1,A,,,,,,Space,keypress(Space),,,,silence,,,,--- ---- ------ --- ------- ---------- ------- ----------<br>--- --------- --- ----------- ------- ----- ------- ---<br>telescope ---- -- --- ---- -- --------- -- ---- -------<br>-- --------- ------ --- ----- ------ ---- --- --------- --<br>------ - ---- -- --- ----------- ------- ---- ----- -----<br>--- -------- - ------ ---- -- ----- ---- --- --- -----------<br>-- -------,289520,289506,288603.48,288603,288611.86,289528.52,,16,telescope
screen,html.Screen,2_3_1_0_1_17,2021-04-28T16:27:38.815Z,,,,,,,,,,,,,,,,,2,,,,,,,,,,,,,,540.4799999999814,,response,,,,1,A,,,,,,Space,keypress(Space),,,,silence,,,,--- ---- ------ --- ------- ---------- ------- ----------<br>--- --------- --- ----------- ------- ----- ------- ---<br>--------- when -- --- ---- -- --------- -- ---- -------<br>-- --------- ------ --- ----- ------ ---- --- --------- --<br>------ - ---- -- --- ----------- ------- ---- ----- -----<br>--- -------- - ------ ---- -- ----- ---- --- --- -----------<br>-- -------,290086,290069,289522.08,289521,289528.52,290095.12,,17,when
screen,html.Screen,2_3_1_0_1_18,2021-04-28T16:27:39.293Z,,,,,,,,,,,,,,,,,2,,,,,,,,,,,,,,458.88000000000466,,response,,,,1,A,,,,,,Space,keypress(Space),,,,silence,,,,--- ---- ------ --- ------- ---------- ------- ----------<br>--- --------- --- ----------- ------- ----- ------- ---<br>--------- ---- he --- ---- -- --------- -- ---- -------<br>-- --------- ------ --- ----- ------ ---- --- --------- --<br>------ - ---- -- --- ----------- ------- ---- ----- -----<br>--- -------- - ------ ---- -- ----- ---- --- --- -----------<br>-- -------,290566,290554,290088.5,290088,290095.12,290578.44,,18,he
screen,html.Screen,2_3_1_0_1_19,2021-04-28T16:27:39.794Z,,,,,,,,,,,,,,,,,2,,,,,,,,,,,,,,475.5599999999977,,response,,,,1,A,,,,,,Space,keypress(Space),,,,silence,,,,--- ---- ------ --- ------- ---------- ------- ----------<br>--- --------- --- ----------- ------- ----- ------- ---<br>--------- ---- -- saw ---- -- --------- -- ---- -------<br>-- --------- ------ --- ----- ------ ---- --- --------- --<br>------ - ---- -- --- ----------- ------- ---- ----- -----<br>--- -------- - ------ ---- -- ----- ---- --- --- -----------<br>-- -------,291065,291054,290568.56,290568,290578.44,291078.4,,19,saw
screen,html.Screen,2_3_1_0_1_20,2021-04-28T16:27:40.303Z,,,,,,,,,,,,,,,,,2,,,,,,,,,,,,,,490.5999999999767,,response,,,,1,A,,,,,,Space,keypress(Space),,,,silence,,,,--- ---- ------ --- ------- ---------- ------- ----------<br>--- --------- --- ----------- ------- ----- ------- ---<br>--------- ---- -- --- what -- --------- -- ---- -------<br>-- --------- ------ --- ----- ------ ---- --- --------- --<br>------ - ---- -- --- ----------- ------- ---- ----- -----<br>--- -------- - ------ ---- -- ----- ---- --- --- -----------<br>-- -------,291575,291569,291067.1,291066,291078.4,291595.1,,20,what
screen,html.Screen,2_3_1_0_1_21,2021-04-28T16:27:40.761Z,,,,,,,,,,,,,,,,,2,,,,,,,,,,,,,,427.9000000000233,,response,,,,1,A,,,,,,Space,keypress(Space),,,,silence,,,,--- ---- ------ --- ------- ---------- ------- ----------<br>--- --------- --- ----------- ------- ----- ------- ---<br>--------- ---- -- --- ---- he --------- -- ---- -------<br>-- --------- ------ --- ----- ------ ---- --- --------- --<br>------ - ---- -- --- ----------- ------- ---- ----- -----<br>--- -------- - ------ ---- -- ----- ---- --- --- -----------<br>-- -------,292033,292023,291578.44,291576,291595.1,292045.04,,21,he
screen,html.Screen,2_3_1_0_1_22,2021-04-28T16:27:41.500Z,,,,,,,,,,,,,,,,,2,,,,,,,,,,,,,,711.960000000021,,response,,,,1,A,,,,,,Space,keypress(Space),,,,silence,,,,--- ---- ------ --- ------- ---------- ------- ----------<br>--- --------- --- ----------- ------- ----- ------- ---<br>--------- ---- -- --- ---- -- described -- ---- -------<br>-- --------- ------ --- ----- ------ ---- --- --------- --<br>------ - ---- -- --- ----------- ------- ---- ----- -----<br>--- -------- - ------ ---- -- ----- ---- --- --- -----------<br>-- -------,292773,292757,292034.7,292033,292045.04,292778.54,,22,described
screen,html.Screen,2_3_1_0_1_23,2021-04-28T16:27:42.184Z,,,,,,,,,,,,,,,,,2,,,,,,,,,,,,,,666.460000000021,,response,,,,1,A,,,,,,Space,keypress(Space),,,,silence,,,,--- ---- ------ --- ------- ---------- ------- ----------<br>--- --------- --- ----------- ------- ----- ------- ---<br>--------- ---- -- --- ---- -- --------- as ---- -------<br>-- --------- ------ --- ----- ------ ---- --- --------- --<br>------ - ---- -- --- ----------- ------- ---- ----- -----<br>--- -------- - ------ ---- -- ----- ---- --- --- -----------<br>-- -------,293456,293445,292773.86,292774,292778.54,293461.96,,23,as
screen,html.Screen,2_3_1_0_1_24,2021-04-28T16:27:42.854Z,,,,,,,,,,,,,,,,,2,,,,,,,,,,,,,,655.039999999979,,response,,,,1,A,,,,,,Space,keypress(Space),,,,silence,,,,"--- ---- ------ --- ------- ---------- ------- ----------<br>--- --------- --- ----------- ------- ----- ------- ---<br>--------- ---- -- --- ---- -- --------- -- ""two -------<br>-- --------- ------ --- ----- ------ ---- --- --------- --<br>------ - ---- -- --- ----------- ------- ---- ----- -----<br>--- -------- - ------ ---- -- ----- ---- --- --- -----------<br>-- -------",294126,294117,293458.56,293458,293461.96,294144.88,,24,"""two"
screen,html.Screen,2_3_1_0_1_25,2021-04-28T16:27:43.380Z,,,,,,,,,,,,,,,,,2,,,,,,,,,,,,,,503.11999999999534,,response,,,,1,A,,,,,,Space,keypress(Space),,,,silence,,,,--- ---- ------ --- ------- ---------- ------- ----------<br>--- --------- --- ----------- ------- ----- ------- ---<br>--------- ---- -- --- ---- -- --------- -- ---- patches<br>-- --------- ------ --- ----- ------ ---- --- --------- --<br>------ - ---- -- --- ----------- ------- ---- ----- -----<br>--- -------- - ------ ---- -- ----- ---- --- --- -----------<br>-- -------,294652,294648,294128,294127,294144.88,294661.6,,25,patches
screen,html.Screen,2_3_1_0_1_26,2021-04-28T16:27:43.772Z,,,,,,,,,,,,,,,,,2,,,,,,,,,,,,,,361.4000000000233,,response,,,,1,A,,,,,,Space,keypress(Space),,,,silence,,,,--- ---- ------ --- ------- ---------- ------- ----------<br>--- --------- --- ----------- ------- ----- ------- ---<br>--------- ---- -- --- ---- -- --------- -- ---- -------<br>of --------- ------ --- ----- ------ ---- --- --------- --<br>------ - ---- -- --- ----------- ------- ---- ----- -----<br>--- -------- - ------ ---- -- ----- ---- --- --- -----------<br>-- -------,295044,295023,294653.22,294653,294661.6,295061.58,,26,of
screen,html.Screen,2_3_1_0_1_27,2021-04-28T16:27:44.362Z,,,,,,,,,,,,,,,,,2,,,,,,,,,,,,,,555.4199999999837,,response,,,,1,A,,,,,,Space,keypress(Space),,,,silence,,,,--- ---- ------ --- ------- ---------- ------- ----------<br>--- --------- --- ----------- ------- ----- ------- ---<br>--------- ---- -- --- ---- -- --------- -- ---- -------<br>-- intensely ------ --- ----- ------ ---- --- --------- --<br>------ - ---- -- --- ----------- ------- ---- ----- -----<br>--- -------- - ------ ---- -- ----- ---- --- --- -----------<br>-- -------,295635,295617,295045.44,295044,295061.58,295644.88,,27,intensely
screen,html.Screen,2_3_1_0_1_28,2021-04-28T16:27:44.842Z,,,,,,,,,,,,,,,,,2,,,,,,,,,,,,,,455.11999999999534,,response,,,,1,A,,,,,,Space,keypress(Space),,,,silence,,,,--- ---- ------ --- ------- ---------- ------- ----------<br>--- --------- --- ----------- ------- ----- ------- ---<br>--------- ---- -- --- ---- -- --------- -- ---- -------<br>-- --------- bright --- ----- ------ ---- --- --------- --<br>------ - ---- -- --- ----------- ------- ---- ----- -----<br>--- -------- - ------ ---- -- ----- ---- --- --- -----------<br>-- -------,296114,296100,295635.9,295636,295644.88,296128.16,,28,bright
screen,html.Screen,2_3_1_0_1_29,2021-04-28T16:27:45.277Z,,,,,,,,,,,,,,,,,2,,,,,,,,,,,,,,410.8400000000256,,response,,,,1,A,,,,,,Space,keypress(Space),,,,silence,,,,--- ---- ------ --- ------- ---------- ------- ----------<br>--- --------- --- ----------- ------- ----- ------- ---<br>--------- ---- -- --- ---- -- --------- -- ---- -------<br>-- --------- ------ and ----- ------ ---- --- --------- --<br>------ - ---- -- --- ----------- ------- ---- ----- -----<br>--- -------- - ------ ---- -- ----- ---- --- --- -----------<br>-- -------,296549,296539,296115.54,296115,296128.16,296561.5,,29,and
screen,html.Screen,2_3_1_0_1_30,2021-04-28T16:27:45.852Z,,,,,,,,,,,,,,,,,2,,,,,,,,,,,,,,555.5,,response,,,,1,A,,,,,,Space,keypress(Space),,,,silence,,,,--- ---- ------ --- ------- ---------- ------- ----------<br>--- --------- --- ----------- ------- ----- ------- ---<br>--------- ---- -- --- ---- -- --------- -- ---- -------<br>-- --------- ------ --- white ------ ---- --- --------- --<br>------ - ---- -- --- ----------- ------- ---- ----- -----<br>--- -------- - ------ ---- -- ----- ---- --- --- -----------<br>-- -------,297124,297117,296550.54,296550,296561.5,297144.96,,30,white
screen,html.Screen,2_3_1_0_1_31,2021-04-28T16:27:46.408Z,,,,,,,,,,,,,,,,,2,,,,,,,,,,,,,,519.039999999979,,response,,,,1,A,,,,,,Space,keypress(Space),,,,silence,,,,"--- ---- ------ --- ------- ---------- ------- ----------<br>--- --------- --- ----------- ------- ----- ------- ---<br>--------- ---- -- --- ---- -- --------- -- ---- -------<br>-- --------- ------ --- ----- light"" ---- --- --------- --<br>------ - ---- -- --- ----------- ------- ---- ----- -----<br>--- -------- - ------ ---- -- ----- ---- --- --- -----------<br>-- -------",297680,297664,297128.38,297125,297144.96,297695.04,,31,"light"""
screen,html.Screen,2_3_1_0_1_32,2021-04-28T16:27:47.132Z,,,,,,,,,,,,,,,,,2,,,,,,,,,,,,,,685.960000000021,,response,,,,1,A,,,,,,Space,keypress(Space),,,,silence,,,,--- ---- ------ --- ------- ---------- ------- ----------<br>--- --------- --- ----------- ------- ----- ------- ---<br>--------- ---- -- --- ---- -- --------- -- ---- -------<br>-- --------- ------ --- ----- ------ over --- --------- --<br>------ - ---- -- --- ----------- ------- ---- ----- -----<br>--- -------- - ------ ---- -- ----- ---- --- --- -----------<br>-- -------,298404,298381,297681.88,297681,297695.04,298411.44,,32,over
screen,html.Screen,2_3_1_0_1_33,2021-04-28T16:27:47.704Z,,,,,,,,,,,,,,,,,2,,,,,,,,,,,,,,548.5599999999977,,response,,,,1,A,,,,,,Space,keypress(Space),,,,silence,,,,--- ---- ------ --- ------- ---------- ------- ----------<br>--- --------- --- ----------- ------- ----- ------- ---<br>--------- ---- -- --- ---- -- --------- -- ---- -------<br>-- --------- ------ --- ----- ------ ---- the --------- --<br>------ - ---- -- --- ----------- ------- ---- ----- -----<br>--- -------- - ------ ---- -- ----- ---- --- --- -----------<br>-- -------,298976,298960,298405.22,298405,298411.44,298994.94,,33,the
screen,html.Screen,2_3_1_0_1_34,2021-04-28T16:27:48.179Z,,,,,,,,,,,,,,,,,2,,,,,,,,,,,,,,434.0599999999977,,response,,,,1,A,,,,,,Space,keypress(Space),,,,silence,,,,--- ---- ------ --- ------- ---------- ------- ----------<br>--- --------- --- ----------- ------- ----- ------- ---<br>--------- ---- -- --- ---- -- --------- -- ---- -------<br>-- --------- ------ --- ----- ------ ---- --- sunspots. --<br>------ - ---- -- --- ----------- ------- ---- ----- -----<br>--- -------- - ------ ---- -- ----- ---- --- --- -----------<br>-- -------,299451,299429,298978.6,298978,298994.94,299461.7,,34,sunspots.
screen,html.Screen,2_3_1_0_1_35,2021-04-28T16:27:48.831Z,,,,,,,,,,,,,,,,,2,,,,,,,,,,,,,,623.2999999999884,,response,,,,1,A,,,,,,Space,keypress(Space),,,,silence,,,,--- ---- ------ --- ------- ---------- ------- ----------<br>--- --------- --- ----------- ------- ----- ------- ---<br>--------- ---- -- --- ---- -- --------- -- ---- -------<br>-- --------- ------ --- ----- ------ ---- --- --------- He<br>------ - ---- -- --- ----------- ------- ---- ----- -----<br>--- -------- - ------ ---- -- ----- ---- --- --- -----------<br>-- -------,300104,300085,299452.22,299451,299461.7,300111.34,,35,He
screen,html.Screen,2_3_1_0_1_36,2021-04-28T16:27:49.495Z,,,,,,,,,,,,,,,,,2,,,,,,,,,,,,,,644.6599999999744,,response,,,,1,A,,,,,,Space,keypress(Space),,,,silence,,,,--- ---- ------ --- ------- ---------- ------- ----------<br>--- --------- --- ----------- ------- ----- ------- ---<br>--------- ---- -- --- ---- -- --------- -- ---- -------<br>-- --------- ------ --- ----- ------ ---- --- --------- --<br>jotted - ---- -- --- ----------- ------- ---- ----- -----<br>--- -------- - ------ ---- -- ----- ---- --- --- -----------<br>-- -------,300768,300756,300104.72,300104,300111.34,300777.98,,36,jotted
screen,html.Screen,2_3_1_0_1_37,2021-04-28T16:27:50.010Z,,,,,,,,,,,,,,,,,2,,,,,,,,,,,,,,495.0200000000186,,response,,,,1,A,,,,,,Space,keypress(Space),,,,silence,,,,--- ---- ------ --- ------- ---------- ------- ----------<br>--- --------- --- ----------- ------- ----- ------- ---<br>--------- ---- -- --- ---- -- --------- -- ---- -------<br>-- --------- ------ --- ----- ------ ---- --- --------- --<br>------ a ---- -- --- ----------- ------- ---- ----- -----<br>--- -------- - ------ ---- -- ----- ---- --- --- -----------<br>-- -------,301282,301273,300769.68,300769,300777.98,301294.64,,37,a
screen,html.Screen,2_3_1_0_1_38,2021-04-28T16:27:50.433Z,,,,,,,,,,,,,,,,,2,,,,,,,,,,,,,,400.35999999998603,,response,,,,1,A,,,,,,Space,keypress(Space),,,,silence,,,,--- ---- ------ --- ------- ---------- ------- ----------<br>--- --------- --- ----------- ------- ----- ------- ---<br>--------- ---- -- --- ---- -- --------- -- ---- -------<br>-- --------- ------ --- ----- ------ ---- --- --------- --<br>------ - note -- --- ----------- ------- ---- ----- -----<br>--- -------- - ------ ---- -- ----- ---- --- --- -----------<br>-- -------,301705,301695,301283.36,301283,301294.64,301711.3,,38,note
screen,html.Screen,2_3_1_0_1_39,2021-04-28T16:27:50.861Z,,,,,,,,,,,,,,,,,2,,,,,,,,,,,,,,405.70000000001164,,response,,,,1,A,,,,,,Space,keypress(Space),,,,silence,,,,--- ---- ------ --- ------- ---------- ------- ----------<br>--- --------- --- ----------- ------- ----- ------- ---<br>--------- ---- -- --- ---- -- --------- -- ---- -------<br>-- --------- ------ --- ----- ------ ---- --- --------- --<br>------ - ---- in --- ----------- ------- ---- ----- -----<br>--- -------- - ------ ---- -- ----- ---- --- --- -----------<br>-- -------,302133,302117,301706.4,301706,301711.3,302144.62,,39,in
screen,html.Screen,2_3_1_0_1_40,2021-04-28T16:27:51.234Z,,,,,,,,,,,,,,,,,2,,,,,,,,,,,,,,347.38000000000466,,response,,,,1,A,,,,,,Space,keypress(Space),,,,silence,,,,--- ---- ------ --- ------- ---------- ------- ----------<br>--- --------- --- ----------- ------- ----- ------- ---<br>--------- ---- -- --- ---- -- --------- -- ---- -------<br>-- --------- ------ --- ----- ------ ---- --- --------- --<br>------ - ---- -- his ----------- ------- ---- ----- -----<br>--- -------- - ------ ---- -- ----- ---- --- --- -----------<br>-- -------,302506,302492,302134.5,302134,302144.62,302511.24,,40,his
screen,html.Screen,2_3_1_0_1_41,2021-04-28T16:27:51.952Z,,,,,,,,,,,,,,,,,2,,,,,,,,,,,,,,698.7600000000093,,response,,,,1,A,,,,,,Space,keypress(Space),,,,silence,,,,--- ---- ------ --- ------- ---------- ------- ----------<br>--- --------- --- ----------- ------- ----- ------- ---<br>--------- ---- -- --- ---- -- --------- -- ---- -------<br>-- --------- ------ --- ----- ------ ---- --- --------- --<br>------ - ---- -- --- painstaking ------- ---- ----- -----<br>--- -------- - ------ ---- -- ----- ---- --- --- -----------<br>-- -------,303225,303210,302507.28,302506,302511.24,303244.54,,41,painstaking
screen,html.Screen,2_3_1_0_1_42,2021-04-28T16:27:53.074Z,,,,,,,,,,,,,,,,,2,,,,,,,,,,,,,,1090.460000000021,,response,,,,1,A,,,,,,Space,keypress(Space),,,,silence,,,,--- ---- ------ --- ------- ---------- ------- ----------<br>--- --------- --- ----------- ------- ----- ------- ---<br>--------- ---- -- --- ---- -- --------- -- ---- -------<br>-- --------- ------ --- ----- ------ ---- --- --------- --<br>------ - ---- -- --- ----------- record. ---- ----- -----<br>--- -------- - ------ ---- -- ----- ---- --- --- -----------<br>-- -------,304346,304335,303227.86,303226,303244.54,304361.16,,42,record.
screen,html.Screen,2_3_1_0_1_43,2021-04-28T16:27:53.643Z,,,,,,,,,,,,,,,,,2,,,,,,,,,,,,,,535.8400000000256,,response,,,,1,A,,,,,,Space,keypress(Space),,,,silence,,,,--- ---- ------ --- ------- ---------- ------- ----------<br>--- --------- --- ----------- ------- ----- ------- ---<br>--------- ---- -- --- ---- -- --------- -- ---- -------<br>-- --------- ------ --- ----- ------ ---- --- --------- --<br>------ - ---- -- --- ----------- ------- That ----- -----<br>--- -------- - ------ ---- -- ----- ---- --- --- -----------<br>-- -------,304916,304897,304348.4,304348,304361.16,304927.78,,43,That
screen,html.Screen,2_3_1_0_1_44,2021-04-28T16:27:54.189Z,,,,,,,,,,,,,,,,,2,,,,,,,,,,,,,,517.2199999999721,,response,,,,1,A,,,,,,Space,keypress(Space),,,,silence,,,,--- ---- ------ --- ------- ---------- ------- ----------<br>--- --------- --- ----------- ------- ----- ------- ---<br>--------- ---- -- --- ---- -- --------- -- ---- -------<br>-- --------- ------ --- ----- ------ ---- --- --------- --<br>------ - ---- -- --- ----------- ------- ---- night -----<br>--- -------- - ------ ---- -- ----- ---- --- --- -----------<br>-- -------,305462,305445,304917.12,304916,304927.78,305477.76,,44,night
screen,html.Screen,2_3_1_0_1_45,2021-04-28T16:27:54.660Z,,,,,,,,,,,,,,,,,2,,,,,,,,,,,,,,436.2399999999907,,response,,,,1,A,,,,,,Space,keypress(Space),,,,silence,,,,--- ---- ------ --- ------- ---------- ------- ----------<br>--- --------- --- ----------- ------- ----- ------- ---<br>--------- ---- -- --- ---- -- --------- -- ---- -------<br>-- --------- ------ --- ----- ------ ---- --- --------- --<br>------ - ---- -- --- ----------- ------- ---- ----- there<br>--- -------- - ------ ---- -- ----- ---- --- --- -----------<br>-- -------,305932,305914,305462.66,305462,305477.76,305944.42,,45,there
screen,html.Screen,2_3_1_0_1_46,2021-04-28T16:27:55.047Z,,,,,,,,,,,,,,,,,2,,,,,,,,,,,,,,359.5800000000163,,response,,,,1,A,,,,,,Space,keypress(Space),,,,silence,,,,--- ---- ------ --- ------- ---------- ------- ----------<br>--- --------- --- ----------- ------- ----- ------- ---<br>--------- ---- -- --- ---- -- --------- -- ---- -------<br>-- --------- ------ --- ----- ------ ---- --- --------- --<br>------ - ---- -- --- ----------- ------- ---- ----- -----<br>was -------- - ------ ---- -- ----- ---- --- --- -----------<br>-- -------,306319,306304,305933.26,305932,305944.42,306327.72,,46,was
screen,html.Screen,2_3_1_0_1_47,2021-04-28T16:27:55.500Z,,,,,,,,,,,,,,,,,2,,,,,,,,,,,,,,429.28000000002794,,response,,,,1,A,,,,,,Space,keypress(Space),,,,silence,,,,--- ---- ------ --- ------- ---------- ------- ----------<br>--- --------- --- ----------- ------- ----- ------- ---<br>--------- ---- -- --- ---- -- --------- -- ---- -------<br>-- --------- ------ --- ----- ------ ---- --- --------- --<br>------ - ---- -- --- ----------- ------- ---- ----- -----<br>--- scarcely - ------ ---- -- ----- ---- --- --- -----------<br>-- -------,306772,306757,306320.58,306320,306327.72,306777.74,,47,scarcely
screen,html.Screen,2_3_1_0_1_48,2021-04-28T16:27:55.969Z,,,,,,,,,,,,,,,,,2,,,,,,,,,,,,,,447.2600000000093,,response,,,,1,A,,,,,,Space,keypress(Space),,,,silence,,,,--- ---- ------ --- ------- ---------- ------- ----------<br>--- --------- --- ----------- ------- ----- ------- ---<br>--------- ---- -- --- ---- -- --------- -- ---- -------<br>-- --------- ------ --- ----- ------ ---- --- --------- --<br>------ - ---- -- --- ----------- ------- ---- ----- -----<br>--- -------- a ------ ---- -- ----- ---- --- --- -----------<br>-- -------,307241,307225,306774.08,306774,306777.74,307244.36,,48,a
