sender,sender_type,sender_id,timestamp,meta,,Blues,Classical,Country,Dance,Electronic,Folk,Gospel,Hip-Hop,Jazz,Latin,Musical/Film,New-age,Pop,Prolific_id,Provo_ID,R&B,Rap,Reggae,Religious,Rock,Soul,Swing,Traditional,age,artist_name,correct,correctResponse,distraction,duration,education,ended_on,familiarity,gender,headphone_check_performance,item,list,music_frequency,offensiveness,pleasantness,position_correct,preference,response,response_action,snippet_file,song_name,song_rating,sound,stimulus_1,stimulus_2,stimulus_3,text,time_commit,time_end,time_render,time_run,time_show,time_switch,url,word,word_ID
Prolific ID,html.Form,0,2021-04-26T14:39:21.717Z,"{""labjs_version"":""20.2.2"",""labjs_build"":{""flavor"":""production"",""commit"":""a25486e0c714a0ae2ce03ff94b7bb6896854dcfa""},""location"":""https://run.pavlovia.org/mvasilev/prolific_music_c/"",""userAgent"":""Mozilla/5.0 (Windows NT 10.0; Win64; x64) AppleWebKit/537.36 (KHTML, like Gecko) Chrome/90.0.4430.85 Safari/537.36"",""platform"":""Win32"",""language"":""en-GB"",""locale"":""en-GB"",""timeZone"":""Europe/London"",""timezoneOffset"":-60,""screen_width"":1440,""screen_height"":960,""scroll_width"":1426,""scroll_height"":793,""window_innerWidth"":1426,""window_innerHeight"":841,""devicePixelRatio"":1.5}",,,,,,,,,,,,,,,5f0856dbffe90703c92542eb,,,,,,,,,,,,,,,25082.81999996025,,form submission,,,,,,,,,,,,,,,,,,,,,44635.364999994636,44635.06999996025,19517.521,19526.209999923594,19552.25,44644.985,{},,
Introduction,html.Screen,1_0,2021-04-26T14:39:49.399Z,,,,,,,,,,,,,,,,,,,,,,,,,,,,,,,27671.12999993596,,response,,,,,,,,,,,continue,click button,,,,,,,,,72317.67499994021,72316.11499993596,44626.547,44635.53999993019,44644.985,72333.283,,,
Volume calibration,html.Screen,1_1,2021-04-26T14:40:19.935Z,,,,,,,,,,,,,,,,,,,,,,,,,,,,,,,30518.056999935594,,response,,,,,,,,,,,continue,click button,,,,,,,,,102853.15999994054,102851.33999993559,72313.148,72317.7699999651,72333.283,102869.34,,,
Task instructions,html.Screen,1_2,2021-04-26T14:40:24.327Z,,,,,,,,,,,,,,,,,,,,,,,,,,,,,,,4375.664999917004,,response,,,,,,,,,,,continue,click button,,,,,,,,,107245.56999991182,107245.004999917,102837.569,102853.23499992955,102869.34,107249.817,,,
Sounds,html.Screen,1_3_0_0,2021-04-26T14:40:28.573Z,,,,,,,,,,,,,,,,,,,,,,,,,,,,,,,4256.095000000001,,timeout,,,,,,,,,3,,,,,,,,O,I,S,,111491.18999997154,111489.243,107233.148,107245.73999992572,107249.817,111505.912,,,
Judgement,html.Screen,1_3_0_1,2021-04-26T14:40:29.383Z,,,,,,,,,,,,,,,,,,,,,,,,,,,,false,3,,794.8780000084225,,response,,,,,,,,,3,,1,click #choice-1,,,,,O,I,S,,112301.35500000324,112300.79000000842,111489.243,111491.31999991369,111505.912,112307.335,,,
Trial,flow.Sequence,1_3_0,2021-04-26T14:40:29.383Z,,,,,,,,,,,,,,,,,,,,,,,,,,,,,,,5050.973000008424,,completion,,,,,,,,,3,,,,,,,,O,I,S,,112301.53499997687,112300.79000000842,107233.148,107245.71499996819,107249.817,112307.335,,,
Sounds,html.Screen,1_3_1_0,2021-04-26T14:40:33.625Z,,,,,,,,,,,,,,,,,,,,,,,,,,,,,,,4252.409,,timeout,,,,,,,,,1,,,,,,,,S,I,O,,116543.60999993514,116543.078,112290.638,112301.6199999256,112307.335,116559.744,,,
Judgement,html.Screen,1_3_1_1,2021-04-26T14:40:34.903Z,,,,,,,,,,,,,,,,,,,,,,,,,,,,true,1,,1261.125999937707,,response,,,,,,,,,1,,1,click #choice-1,,,,,S,I,O,,117821.38999993913,117820.86999993771,116543.078,116543.71999995783,116559.744,117848.625,,,
Trial,flow.Sequence,1_3_1,2021-04-26T14:40:34.903Z,,,,,,,,,,,,,,,,,,,,,,,,,,,,,,,5513.534999937707,,completion,,,,,,,,,1,,,,,,,,S,I,O,,117821.50499999989,117820.86999993771,112290.638,112301.59499996807,112307.335,117848.625,,,
Sounds,html.Screen,1_3_2_0,2021-04-26T14:40:39.159Z,,,,,,,,,,,,,,,,,,,,,,,,,,,,,,,4245.029999999999,,timeout,,,,,,,,,2,,,,,,,,O,S,I,,122077.49999989755,122076.976,117809.714,117821.57499995083,117848.625,122093.655,,,
Judgement,html.Screen,1_3_2_1,2021-04-26T14:40:40.143Z,,,,,,,,,,,,,,,,,,,,,,,,,,,,true,2,,967.2149999284011,,response,,,,,,,,,2,,2,click #choice-2,,,,,O,S,I,,123061.46499991883,123060.8699999284,122076.976,122077.61499995831,122093.655,123063.772,,,
Trial,flow.Sequence,1_3_2,2021-04-26T14:40:40.143Z,,,,,,,,,,,,,,,,,,,,,,,,,,,,,,,5212.2449999284,,completion,,,,,,,,,2,,,,,,,,O,S,I,,123061.63499993272,123060.8699999284,117809.714,117821.55999995302,117848.625,123063.772,,,
Sounds,html.Screen,1_3_3_0,2021-04-26T14:40:44.384Z,,,,,,,,,,,,,,,,,,,,,,,,,,,,,,,4254.452000000005,,timeout,,,,,,,,,3,,,,,,,,I,O,S,,127302.06499993801,127301.545,123047.097,123061.75999995321,123063.772,127318.224,,,
Judgement,html.Screen,1_3_3_1,2021-04-26T14:40:45.077Z,,,,,,,,,,,,,,,,,,,,,,,,,,,,true,3,,676.411000010019,,response,,,,,,,,,3,,3,click #choice-3,,,,,I,O,S,,127995.10499997996,127994.63500001002,127301.545,127302.13500000536,127318.224,128011.888,,,
Trial,flow.Sequence,1_3_3,2021-04-26T14:40:45.077Z,,,,,,,,,,,,,,,,,,,,,,,,,,,,,,,4930.863000010024,,completion,,,,,,,,,3,,,,,,,,I,O,S,,127995.22499996237,127994.63500001002,123047.097,123061.72499991953,123063.772,128011.888,,,
Sounds,html.Screen,1_3_4_0,2021-04-26T14:40:49.328Z,,,,,,,,,,,,,,,,,,,,,,,,,,,,,,,4250.119999999995,,timeout,,,,,,,,,2,,,,,,,,I,S,O,,132245.83999998868,132245.345,127993.043,127995.29499991331,128011.888,132262.008,,,
Judgement,html.Screen,1_3_4_1,2021-04-26T14:40:50.455Z,,,,,,,,,,,,,,,,,,,,,,,,,,,,true,2,,1109.931999982713,,response,,,,,,,,,2,,2,click #choice-2,,,,,I,S,O,,133372.77499993797,133371.93999998271,132245.345,132245.93999993522,132262.008,133403.501,,,
Trial,flow.Sequence,1_3_4,2021-04-26T14:40:50.455Z,,,,,,,,,,,,,,,,,,,,,,,,,,,,,,,5360.051999982708,,completion,,,,,,,,,2,,,,,,,,I,S,O,,133372.95999994967,133371.93999998271,127993.043,127995.27999991551,128011.888,133403.501,,,
Sounds,html.Screen,1_3_5_0,2021-04-26T14:40:54.723Z,,,,,,,,,,,,,,,,,,,,,,,,,,,,,,,4252.813000000024,,timeout,,,,,,,,,1,,,,,,,,S,O,I,,137641.32499997504,137639.58,133369.625,133373.08499997016,133403.501,137656.314,,,
Judgement,html.Screen,1_3_5_1,2021-04-26T14:40:55.674Z,,,,,,,,,,,,,,,,,,,,,,,,,,,,true,1,,934.8809999863151,,response,,,,,,,,,1,,1,click #choice-1,,,,,S,O,I,,138592.15499996208,138591.19499998633,137639.58,137641.39999996405,137656.314,138599.067,,,
Trial,flow.Sequence,1_3_5,2021-04-26T14:40:55.674Z,,,,,,,,,,,,,,,,,,,,,,,,,,,,,,,5187.693999986339,,completion,,,,,,,,,1,,,,,,,,S,O,I,,138592.27999998257,138591.19499998633,133369.625,133373.04999993648,133403.501,138599.067,,,
Task,flow.Loop,1_3,2021-04-26T14:40:55.676Z,,,,,,,,,,,,,,,,,,,,,,,,,,,,,,,31341.377999986333,,completion,,,0.8333333333333334,,,,,,,,,,,,,,,,,,138594.24999996554,138591.19499998633,107233.148,107245.67500001285,107249.817,138599.067,,,
Trap,html.Screen,1_4,2021-04-26T14:40:55.677Z,,,,,,,,,,,,,,,,,,,,,,,,,,,,,,,NaN,,skipped,,,,,,,,,,,,,,,,,,,,,138595.11999995448,138591.19499998633,,138595.02999996766,,138599.067,,,
Thanks,html.Screen,1_5,2021-04-26T14:40:59.152Z,,,,,,,,,,,,,,,,,,,,,,,,,,,,,,,3469.8279999166552,,response,,,,,,,,,,,continue,click button,,,,,,,,,142069.7199999122,142068.89499991667,138582.422,138595.1749999076,138599.067,144247.574,,,
Headphone screening,flow.Sequence,1,2021-04-26T14:40:59.152Z,,,,,,,,,,,,,,,,,,,,,,,,,,,,,,,97423.90999991666,,completion,,,,,,,,,,,,,,,,,,,,,142069.84000001103,142068.89499991667,44626.547,44635.52000001073,44644.985,144247.574,,,
Instructions,html.Page,2_0,2021-04-26T14:41:13.486Z,,,,,,,,,,,,,,,,,,,,,,,,,,,,,,,12154.080999936006,,form submission,,,,,,,,,,,,,,,,,,,,,156404.36499996576,156401.654999936,144225.484,144241.41999997664,144247.574,156418.324,,,
Holding screen,html.Screen,2_1_0_0,2021-04-26T14:41:23.477Z,,,,,,,,,,,,,,,,,,,,,,,,,,,,,,,9992.618000000017,,timeout,,,,,,,,,,,,,,,,,,,,,166394.91999999154,166394.371,156400.535,156404.48499994818,156418.324,166410.942,,,
screen,html.Screen,2_1_0_1_0,2021-04-26T14:41:24.335Z,,,,,,,,,,,,,,,,,53,,,,,,,,,,,,,,840.4629999881436,,response,,,,99,,,,,,,Space,keypress(Space),,,,,,,,When -- ----- -- ------ - ------- --- ----------<br>------------- ------ ------ ---- ---- ------- ----- -- ----<br>-------- ------- -- ---------- --- - --- ----- ----- ----<br>---- --- --- ----- --- ---- ---- ------- ----- ---- -------<br>--- --- -- ----- -- --- ---- -- --- ---- -- ------ ------<br>--- ----- -- ----,167252.66999995802,167251.40499998815,166394.371,166395.04500001203,166410.942,167279.598,,0,When
screen,html.Screen,2_1_0_1_1,2021-04-26T14:41:24.639Z,,,,,,,,,,,,,,,,,53,,,,,,,,,,,,,,277.0369999280665,,response,,,,99,,,,,,,Space,keypress(Space),,,,,,,,---- it ----- -- ------ - ------- --- ----------<br>------------- ------ ------ ---- ---- ------- ----- -- ----<br>-------- ------- -- ---------- --- - --- ----- ----- ----<br>---- --- --- ----- --- ---- ---- ------- ----- ---- -------<br>--- --- -- ----- -- --- ---- -- --- ---- -- ------ ------<br>--- ----- -- ----,167557.16999992728,167556.63499992806,167244.318,167252.73999990895,167279.598,167564.033,,1,it
screen,html.Screen,2_1_0_1_2,2021-04-26T14:41:24.960Z,,,,,,,,,,,,,,,,,53,,,,,,,,,,,,,,313.65199995582225,,response,,,,99,,,,,,,Space,keypress(Space),,,,,,,,---- -- comes -- ------ - ------- --- ----------<br>------------- ------ ------ ---- ---- ------- ----- -- ----<br>-------- ------- -- ---------- --- - --- ----- ----- ----<br>---- --- --- ----- --- ---- ---- ------- ----- ---- -------<br>--- --- -- ----- -- --- ---- -- --- ---- -- ------ ------<br>--- ----- -- ----,167878.1799999997,167877.68499995582,167554.448,167557.2299999185,167564.033,167881.321,,2,comes
screen,html.Screen,2_1_0_1_3,2021-04-26T14:41:25.276Z,,,,,,,,,,,,,,,,,53,,,,,,,,,,,,,,312.4239999386482,,response,,,,99,,,,,,,Space,keypress(Space),,,,,,,,---- -- ----- to ------ - ------- --- ----------<br>------------- ------ ------ ---- ---- ------- ----- -- ----<br>-------- ------- -- ---------- --- - --- ----- ----- ----<br>---- --- --- ----- --- ---- ---- ------- ----- ---- -------<br>--- --- -- ----- -- --- ---- -- --- ---- -- ------ ------<br>--- ----- -- ----,168194.28499997593,168193.74499993864,167863.935,167878.2549999887,167881.321,168204.275,,3,to
screen,html.Screen,2_1_0_1_4,2021-04-26T14:41:25.517Z,,,,,,,,,,,,,,,,,53,,,,,,,,,,,,,,230.0849999556376,,response,,,,99,,,,,,,Space,keypress(Space),,,,,,,,---- -- ----- -- having - ------- --- ----------<br>------------- ------ ------ ---- ---- ------- ----- -- ----<br>-------- ------- -- ---------- --- - --- ----- ----- ----<br>---- --- --- ----- --- ---- ---- ------- ----- ---- -------<br>--- --- -- ----- -- --- ---- -- --- ---- -- ------ ------<br>--- ----- -- ----,168434.76999993436,168434.35999995563,168181.448,168194.35999996495,168204.275,168453.189,,4,having
screen,html.Screen,2_1_0_1_5,2021-04-26T14:41:25.759Z,,,,,,,,,,,,,,,,,53,,,,,,,,,,,,,,223.5059999146033,,response,,,,99,,,,,,,Space,keypress(Space),,,,,,,,---- -- ----- -- ------ a ------- --- ----------<br>------------- ------ ------ ---- ---- ------- ----- -- ----<br>-------- ------- -- ---------- --- - --- ----- ----- ----<br>---- --- --- ----- --- ---- ---- ------- ----- ---- -------<br>--- --- -- ----- -- --- ---- -- --- ---- -- ------ ------<br>--- ----- -- ----,168677.19999991823,168676.69499991462,168421.103,168434.85999992117,168453.189,168688.836,,5,a
screen,html.Screen,2_1_0_1_6,2021-04-26T14:41:26.070Z,,,,,,,,,,,,,,,,,53,,,,,,,,,,,,,,299.0239999938058,,response,,,,99,,,,,,,Space,keypress(Space),,,,,,,,---- -- ----- -- ------ - lasting --- ----------<br>------------- ------ ------ ---- ---- ------- ----- -- ----<br>-------- ------- -- ---------- --- - --- ----- ----- ----<br>---- --- --- ----- --- ---- ---- ------- ----- ---- -------<br>--- --- -- ----- -- --- ---- -- --- ---- -- ------ ------<br>--- ----- -- ----,168988.25499997474,168987.85999999382,168669.942,168677.25499998778,168688.836,168998.013,,6,lasting
screen,html.Screen,2_1_0_1_7,2021-04-26T14:41:26.373Z,,,,,,,,,,,,,,,,,53,,,,,,,,,,,,,,292.2869999932882,,response,,,,99,,,,,,,Space,keypress(Space),,,,,,,,---- -- ----- -- ------ - ------- and ----------<br>------------- ------ ------ ---- ---- ------- ----- -- ----<br>-------- ------- -- ---------- --- - --- ----- ----- ----<br>---- --- --- ----- --- ---- ---- ------- ----- ---- -------<br>--- --- -- ----- -- --- ---- -- --- ---- -- ------ ------<br>--- ----- -- ----,169290.76499992516,169290.2999999933,168971.953,168988.32999996375,168998.013,169310.293,,7,and
screen,html.Screen,2_1_0_1_8,2021-04-26T14:41:26.649Z,,,,,,,,,,,,,,,,,53,,,,,,,,,,,,,,256.6969999629655,,response,,,,99,,,,,,,Space,keypress(Space),,,,,,,,---- -- ----- -- ------ - ------- --- fulfilling<br>------------- ------ ------ ---- ---- ------- ----- -- ----<br>-------- ------- -- ---------- --- - --- ----- ----- ----<br>---- --- --- ----- --- ---- ---- ------- ----- ---- -------<br>--- --- -- ----- -- --- ---- -- --- ---- -- ------ ------<br>--- ----- -- ----,169567.39499990363,169566.98999996297,169281.374,169290.87499994785,169310.293,169586.769,,8,fulfilling
screen,html.Screen,2_1_0_1_9,2021-04-26T14:41:26.944Z,,,,,,,,,,,,,,,,,53,,,,,,,,,,,,,,274.54599998737103,,response,,,,99,,,,,,,Space,keypress(Space),,,,,,,,"---- -- ----- -- ------ - ------- --- ----------<br>relationship, ------ ------ ---- ---- ------- ----- -- ----<br>-------- ------- -- ---------- --- - --- ----- ----- ----<br>---- --- --- ----- --- ---- ---- ------- ----- ---- -------<br>--- --- -- ----- -- --- ---- -- --- ---- -- ------ ------<br>--- ----- -- ----",169861.7699999595,169861.31499998737,169559.221,169567.44999997318,169586.769,169880.538,,9,"relationship,"
screen,html.Screen,2_1_0_1_10,2021-04-26T14:41:27.505Z,,,,,,,,,,,,,,,,,53,,,,,,,,,,,,,,541.7519999003853,,response,,,,99,,,,,,,Space,keypress(Space),,,,,,,,---- -- ----- -- ------ - ------- --- ----------<br>------------- common ------ ---- ---- ------- ----- -- ----<br>-------- ------- -- ---------- --- - --- ----- ----- ----<br>---- --- --- ----- --- ---- ---- ------- ----- ---- -------<br>--- --- -- ----- -- --- ---- -- --- ---- -- ------ ------<br>--- ----- -- ----,170422.794999904,170422.2899999004,169852.78,169861.8349999888,169880.538,170436.581,,10,common
screen,html.Screen,2_1_0_1_11,2021-04-26T14:41:27.835Z,,,,,,,,,,,,,,,,,53,,,,,,,,,,,,,,316.01900000707246,,response,,,,99,,,,,,,Space,keypress(Space),,,,,,,,---- -- ----- -- ------ - ------- --- ----------<br>------------- ------ wisdom ---- ---- ------- ----- -- ----<br>-------- ------- -- ---------- --- - --- ----- ----- ----<br>---- --- --- ----- --- ---- ---- ------- ----- ---- -------<br>--- --- -- ----- -- --- ---- -- --- ---- -- ------ ------<br>--- ----- -- ----,170753.10999993235,170752.60000000708,170413.74,170422.87000000942,170436.581,170772.626,,11,wisdom
screen,html.Screen,2_1_0_1_12,2021-04-26T14:41:28.130Z,,,,,,,,,,,,,,,,,53,,,,,,,,,,,,,,274.9539998967084,,response,,,,99,,,,,,,Space,keypress(Space),,,,,,,,---- -- ----- -- ------ - ------- --- ----------<br>------------- ------ ------ says ---- ------- ----- -- ----<br>-------- ------- -- ---------- --- - --- ----- ----- ----<br>---- --- --- ----- --- ---- ---- ------- ----- ---- -------<br>--- --- -- ----- -- --- ---- -- --- ---- -- ------ ------<br>--- ----- -- ----,171048.02999994718,171047.5799998967,170753.363,170753.16999992356,170772.626,171066.738,,12,says
screen,html.Screen,2_1_0_1_13,2021-04-26T14:41:28.328Z,,,,,,,,,,,,,,,,,53,,,,,,,,,,,,,,179.10699991032016,,response,,,,99,,,,,,,Space,keypress(Space),,,,,,,,---- -- ----- -- ------ - ------- --- ----------<br>------------- ------ ------ ---- that ------- ----- -- ----<br>-------- ------- -- ---------- --- - --- ----- ----- ----<br>---- --- --- ----- --- ---- ---- ------- ----- ---- -------<br>--- --- -- ----- -- --- ---- -- --- ---- -- ------ ------<br>--- ----- -- ----,171246.24499992933,171245.84499991033,171038.282,171048.08999993838,171066.738,171249.789,,13,that
screen,html.Screen,2_1_0_1_14,2021-04-26T14:41:28.559Z,,,,,,,,,,,,,,,,,53,,,,,,,,,,,,,,226.98599998827558,,response,,,,99,,,,,,,Space,keypress(Space),,,,,,,,---- -- ----- -- ------ - ------- --- ----------<br>------------- ------ ------ ---- ---- feeling ----- -- ----<br>-------- ------- -- ---------- --- - --- ----- ----- ----<br>---- --- --- ----- --- ---- ---- ------- ----- ---- -------<br>--- --- -- ----- -- --- ---- -- --- ---- -- ------ ------<br>--- ----- -- ----,171477.20999992453,171476.77499998827,171233.284,171246.31999991834,171249.789,171495.64,,14,feeling
screen,html.Screen,2_1_0_1_15,2021-04-26T14:41:28.887Z,,,,,,,,,,,,,,,,,53,,,,,,,,,,,,,,308.5999999685446,,response,,,,99,,,,,,,Space,keypress(Space),,,,,,,,---- -- ----- -- ------ - ------- --- ----------<br>------------- ------ ------ ---- ---- ------- close -- ----<br>-------- ------- -- ---------- --- - --- ----- ----- ----<br>---- --- --- ----- --- ---- ---- ------- ----- ---- -------<br>--- --- -- ----- -- --- ---- -- --- ---- -- ------ ------<br>--- ----- -- ----,171804.76500000805,171804.23999996856,171466.45,171477.26999991573,171495.64,171806.373,,15,close
screen,html.Screen,2_1_0_1_16,2021-04-26T14:41:29.141Z,,,,,,,,,,,,,,,,,53,,,,,,,,,,,,,,252.39700000328594,,response,,,,99,,,,,,,Space,keypress(Space),,,,,,,,---- -- ----- -- ------ - ------- --- ----------<br>------------- ------ ------ ---- ---- ------- ----- to ----<br>-------- ------- -- ---------- --- - --- ----- ----- ----<br>---- --- --- ----- --- ---- ---- ------- ----- ---- -------<br>--- --- -- ----- -- --- ---- -- --- ---- -- ------ ------<br>--- ----- -- ----,172059.25499997102,172058.77000000328,171795.553,171804.86999999266,171806.373,172078.585,,16,to
screen,html.Screen,2_1_0_1_17,2021-04-26T14:41:29.445Z,,,,,,,,,,,,,,,,,53,,,,,,,,,,,,,,284.03999995064805,,response,,,,99,,,,,,,Space,keypress(Space),,,,,,,,---- -- ----- -- ------ - ------- --- ----------<br>------------- ------ ------ ---- ---- ------- ----- -- your<br>-------- ------- -- ---------- --- - --- ----- ----- ----<br>---- --- --- ----- --- ---- ---- ------- ----- ---- -------<br>--- --- -- ----- -- --- ---- -- --- ---- -- ------ ------<br>--- ----- -- ----,172363.02499996964,172362.62499995064,172056.288,172059.3349999981,172078.585,172374.873,,17,your
screen,html.Screen,2_1_0_1_18,2021-04-26T14:41:29.907Z,,,,,,,,,,,,,,,,,53,,,,,,,,,,,,,,449.86699995273375,,response,,,,99,,,,,,,Space,keypress(Space),,,,,,,,---- -- ----- -- ------ - ------- --- ----------<br>------------- ------ ------ ---- ---- ------- ----- -- ----<br>romantic ------- -- ---------- --- - --- ----- ----- ----<br>---- --- --- ----- --- ---- ---- ------- ----- ---- -------<br>--- --- -- ----- -- --- ---- -- --- ---- -- ------ ------<br>--- ----- -- ----,172825.1750000054,172824.73999995273,172360.606,172363.08999999892,172374.873,172844.116,,18,romantic
screen,html.Screen,2_1_0_1_19,2021-04-26T14:41:30.210Z,,,,,,,,,,,,,,,,,53,,,,,,,,,,,,,,283.6989998979552,,response,,,,99,,,,,,,Space,keypress(Space),,,,,,,,---- -- ----- -- ------ - ------- --- ----------<br>------------- ------ ------ ---- ---- ------- ----- -- ----<br>-------- partner -- ---------- --- - --- ----- ----- ----<br>---- --- --- ----- --- ---- ---- ------- ----- ---- -------<br>--- --- -- ----- -- --- ---- -- --- ---- -- ------ ------<br>--- ----- -- ----,173128.30499990378,173127.81499989796,172824.295,172825.2349999966,172844.116,173146.85,,19,partner
screen,html.Screen,2_1_0_1_20,2021-04-26T14:41:30.568Z,,,,,,,,,,,,,,,,,53,,,,,,,,,,,,,,338.55499992668047,,response,,,,99,,,,,,,Space,keypress(Space),,,,,,,,---- -- ----- -- ------ - ------- --- ----------<br>------------- ------ ------ ---- ---- ------- ----- -- ----<br>-------- ------- is ---------- --- - --- ----- ----- ----<br>---- --- --- ----- --- ---- ---- ------- ----- ---- -------<br>--- --- -- ----- -- --- ---- -- --- ---- -- ------ ------<br>--- ----- -- ----,173485.82999990322,173485.4049999267,173126.46,173128.3800000092,173146.85,173505.202,,20,is
screen,html.Screen,2_1_0_1_21,2021-04-26T14:41:30.867Z,,,,,,,,,,,,,,,,,53,,,,,,,,,,,,,,279.0379999499419,,response,,,,99,,,,,,,Space,keypress(Space),,,,,,,,---- -- ----- -- ------ - ------- --- ----------<br>------------- ------ ------ ---- ---- ------- ----- -- ----<br>-------- ------- -- paramount. --- - --- ----- ----- ----<br>---- --- --- ----- --- ---- ---- ------- ----- ---- -------<br>--- --- -- ----- -- --- ---- -- --- ---- -- ------ ------<br>--- ----- -- ----,173784.72999995574,173784.23999994993,173479.615,173485.89000001084,173505.202,173795.54,,21,paramount.
screen,html.Screen,2_1_0_1_22,2021-04-26T14:41:31.663Z,,,,,,,,,,,,,,,,,53,,,,,,,,,,,,,,785.3599999426224,,response,,,,99,,,,,,,Space,keypress(Space),,,,,,,,---- -- ----- -- ------ - ------- --- ----------<br>------------- ------ ------ ---- ---- ------- ----- -- ----<br>-------- ------- -- ---------- But - --- ----- ----- ----<br>---- --- --- ----- --- ---- ---- ------- ----- ---- -------<br>--- --- -- ----- -- --- ---- -- --- ---- -- ------ ------<br>--- ----- -- ----,174581.41499990597,174580.89999994263,173770.637,173784.78499990888,173795.54,174600.02,,22,But
screen,html.Screen,2_1_0_1_23,2021-04-26T14:41:32.207Z,,,,,,,,,,,,,,,,,53,,,,,,,,,,,,,,524.4499999224499,,response,,,,99,,,,,,,Space,keypress(Space),,,,,,,,---- -- ----- -- ------ - ------- --- ----------<br>------------- ------ ------ ---- ---- ------- ----- -- ----<br>-------- ------- -- ---------- --- a --- ----- ----- ----<br>---- --- --- ----- --- ---- ---- ------- ----- ---- -------<br>--- --- -- ----- -- --- ---- -- --- ---- -- ------ ------<br>--- ----- -- ----,175125.40999997873,175124.46999992244,174578.62,174581.520000007,174600.02,175127.274,,23,a
screen,html.Screen,2_1_0_1_24,2021-04-26T14:41:32.514Z,,,,,,,,,,,,,,,,,53,,,,,,,,,,,,,,304.60100000930834,,response,,,,99,,,,,,,Space,keypress(Space),,,,,,,,---- -- ----- -- ------ - ------- --- ----------<br>------------- ------ ------ ---- ---- ------- ----- -- ----<br>-------- ------- -- ---------- --- - new ----- ----- ----<br>---- --- --- ----- --- ---- ---- ------- ----- ---- -------<br>--- --- -- ----- -- --- ---- -- --- ---- -- ------ ------<br>--- ----- -- ----,175432.27999994997,175431.8750000093,175111.057,175125.46999996994,175127.274,175446.295,,24,new
screen,html.Screen,2_1_0_1_25,2021-04-26T14:41:32.810Z,,,,,,,,,,,,,,,,,53,,,,,,,,,,,,,,281.054999942804,,response,,,,99,,,,,,,Space,keypress(Space),,,,,,,,---- -- ----- -- ------ - ------- --- ----------<br>------------- ------ ------ ---- ---- ------- ----- -- ----<br>-------- ------- -- ---------- --- - --- study ----- ----<br>---- --- --- ----- --- ---- ---- ------- ----- ---- -------<br>--- --- -- ----- -- --- ---- -- --- ---- -- ------ ------<br>--- ----- -- ----,175727.79499995522,175727.34999994282,175427.468,175432.33999994118,175446.295,175746.109,,25,study
screen,html.Screen,2_1_0_1_26,2021-04-26T14:41:33.074Z,,,,,,,,,,,,,,,,,53,,,,,,,,,,,,,,245.78599998465506,,response,,,,99,,,,,,,Space,keypress(Space),,,,,,,,---- -- ----- -- ------ - ------- --- ----------<br>------------- ------ ------ ---- ---- ------- ----- -- ----<br>-------- ------- -- ---------- --- - --- ----- finds ----<br>---- --- --- ----- --- ---- ---- ------- ----- ---- -------<br>--- --- -- ----- -- --- ---- -- --- ---- -- ------ ------<br>--- ----- -- ----,175992.3499999568,175991.89499998465,175712.939,175727.85499994643,175746.109,175994.565,,26,finds
screen,html.Screen,2_1_0_1_27,2021-04-26T14:41:33.339Z,,,,,,,,,,,,,,,,,53,,,,,,,,,,,,,,261.67999993864214,,response,,,,99,,,,,,,Space,keypress(Space),,,,,,,,---- -- ----- -- ------ - ------- --- ----------<br>------------- ------ ------ ---- ---- ------- ----- -- ----<br>-------- ------- -- ---------- --- - --- ----- ----- that<br>---- --- --- ----- --- ---- ---- ------- ----- ---- -------<br>--- --- -- ----- -- --- ---- -- --- ---- -- ------ ------<br>--- ----- -- ----,176256.72499998473,176256.24499993864,175979.509,175992.42999998387,175994.565,176276.104,,27,that
screen,html.Screen,2_1_0_1_28,2021-04-26T14:41:33.697Z,,,,,,,,,,,,,,,,,53,,,,,,,,,,,,,,338.3959999087383,,response,,,,99,,,,,,,Space,keypress(Space),,,,,,,,---- -- ----- -- ------ - ------- --- ----------<br>------------- ------ ------ ---- ---- ------- ----- -- ----<br>-------- ------- -- ---------- --- - --- ----- ----- ----<br>it's --- --- ----- --- ---- ---- ------- ----- ---- -------<br>--- --- -- ----- -- --- ---- -- --- ---- -- ------ ------<br>--- ----- -- ----,176614.9499999592,176614.49999990873,176244.713,176256.82999996934,176276.104,176634.352,,28,it's
screen,html.Screen,2_1_0_1_29,2021-04-26T14:41:34.072Z,,,,,,,,,,,,,,,,,53,,,,,,,,,,,,,,355.28799992700806,,response,,,,99,,,,,,,Space,keypress(Space),,,,,,,,---- -- ----- -- ------ - ------- --- ----------<br>------------- ------ ------ ---- ---- ------- ----- -- ----<br>-------- ------- -- ---------- --- - --- ----- ----- ----<br>---- not --- ----- --- ---- ---- ------- ----- ---- -------<br>--- --- -- ----- -- --- ---- -- --- ---- -- ------ ------<br>--- ----- -- ----,176990.0899999775,176989.63999992702,176608.343,176615.00999995042,176634.352,177009.489,,29,not
screen,html.Screen,2_1_0_1_30,2021-04-26T14:41:34.349Z,,,,,,,,,,,,,,,,,53,,,,,,,,,,,,,,257.34599990030983,,response,,,,99,,,,,,,Space,keypress(Space),,,,,,,,---- -- ----- -- ------ - ------- --- ----------<br>------------- ------ ------ ---- ---- ------- ----- -- ----<br>-------- ------- -- ---------- --- - --- ----- ----- ----<br>---- --- how ----- --- ---- ---- ------- ----- ---- -------<br>--- --- -- ----- -- --- ---- -- --- ---- -- ------ ------<br>--- ----- -- ----,177267.18500000425,177266.8349999003,176983.296,176990.1499999687,177009.489,177286.476,,30,how
screen,html.Screen,2_1_0_1_31,2021-04-26T14:41:34.607Z,,,,,,,,,,,,,,,,,53,,,,,,,,,,,,,,238.08899997061235,,response,,,,99,,,,,,,Space,keypress(Space),,,,,,,,---- -- ----- -- ------ - ------- --- ----------<br>------------- ------ ------ ---- ---- ------- ----- -- ----<br>-------- ------- -- ---------- --- - --- ----- ----- ----<br>---- --- --- close --- ---- ---- ------- ----- ---- -------<br>--- --- -- ----- -- --- ---- -- --- ---- -- ------ ------<br>--- ----- -- ----,177525.009999983,177524.5649999706,177258.426,177267.2499999171,177286.476,177533.189,,31,close
screen,html.Screen,2_1_0_1_32,2021-04-26T14:41:34.873Z,,,,,,,,,,,,,,,,,53,,,,,,,,,,,,,,257.29600000497885,,response,,,,99,,,,,,,Space,keypress(Space),,,,,,,,---- -- ----- -- ------ - ------- --- ----------<br>------------- ------ ------ ---- ---- ------- ----- -- ----<br>-------- ------- -- ---------- --- - --- ----- ----- ----<br>---- --- --- ----- you ---- ---- ------- ----- ---- -------<br>--- --- -- ----- -- --- ---- -- --- ---- -- ------ ------<br>--- ----- -- ----,177790.93499993905,177790.485000005,177519.059,177525.0750000123,177533.189,177800.904,,32,you
screen,html.Screen,2_1_0_1_33,2021-04-26T14:41:35.143Z,,,,,,,,,,,,,,,,,53,,,,,,,,,,,,,,259.58599994526594,,response,,,,99,,,,,,,Space,keypress(Space),,,,,,,,---- -- ----- -- ------ - ------- --- ----------<br>------------- ------ ------ ---- ---- ------- ----- -- ----<br>-------- ------- -- ---------- --- - --- ----- ----- ----<br>---- --- --- ----- --- feel ---- ------- ----- ---- -------<br>--- --- -- ----- -- --- ---- -- --- ---- -- ------ ------<br>--- ----- -- ----,178060.98999991082,178060.48999994528,177782.934,177790.9900000086,177800.904,178080.096,,33,feel
screen,html.Screen,2_1_0_1_34,2021-04-26T14:41:35.408Z,,,,,,,,,,,,,,,,,53,,,,,,,,,,,,,,245.4289999929315,,response,,,,99,,,,,,,Space,keypress(Space),,,,,,,,---- -- ----- -- ------ - ------- --- ----------<br>------------- ------ ------ ---- ---- ------- ----- -- ----<br>-------- ------- -- ---------- --- - --- ----- ----- ----<br>---- --- --- ----- --- ---- that ------- ----- ---- -------<br>--- --- -- ----- -- --- ---- -- --- ---- -- ------ ------<br>--- ----- -- ----,178325.99499996286,178325.52499999292,178051.321,178061.0699999379,178080.096,178344.317,,34,that
screen,html.Screen,2_1_0_1_35,2021-04-26T14:41:35.715Z,,,,,,,,,,,,,,,,,53,,,,,,,,,,,,,,288.07299992608023,,response,,,,99,,,,,,,Space,keypress(Space),,,,,,,,---- -- ----- -- ------ - ------- --- ----------<br>------------- ------ ------ ---- ---- ------- ----- -- ----<br>-------- ------- -- ---------- --- - --- ----- ----- ----<br>---- --- --- ----- --- ---- ---- matters ----- ---- -------<br>--- --- -- ----- -- --- ---- -- --- ---- -- ------ ------<br>--- ----- -- ----,178632.63000000734,178632.3899999261,178312.288,178326.05499995407,178344.317,178652.401,,35,matters
screen,html.Screen,2_1_0_1_36,2021-04-26T14:41:35.932Z,,,,,,,,,,,,,,,,,53,,,,,,,,,,,,,,197.58399997890228,,response,,,,99,,,,,,,Space,keypress(Space),,,,,,,,"---- -- ----- -- ------ - ------- --- ----------<br>------------- ------ ------ ---- ---- ------- ----- -- ----<br>-------- ------- -- ---------- --- - --- ----- ----- ----<br>---- --- --- ----- --- ---- ---- ------- most, ---- -------<br>--- --- -- ----- -- --- ---- -- --- ---- -- ------ ------<br>--- ----- -- ----",178850.41999991518,178849.98499997891,178627.82,178632.96499999706,178652.401,178868.814,,36,"most,"
screen,html.Screen,2_1_0_1_37,2021-04-26T14:41:36.196Z,,,,,,,,,,,,,,,,,53,,,,,,,,,,,,,,245.21599993878044,,response,,,,99,,,,,,,Space,keypress(Space),,,,,,,,---- -- ----- -- ------ - ------- --- ----------<br>------------- ------ ------ ---- ---- ------- ----- -- ----<br>-------- ------- -- ---------- --- - --- ----- ----- ----<br>---- --- --- ----- --- ---- ---- ------- ----- it's -------<br>--- --- -- ----- -- --- ---- -- --- ---- -- ------ ------<br>--- ----- -- ----,179114.41999999806,179114.0299999388,178834.628,178850.47999990638,178868.814,179132.806,,37,it's
screen,html.Screen,2_1_0_1_38,2021-04-26T14:41:36.489Z,,,,,,,,,,,,,,,,,53,,,,,,,,,,,,,,273.7289999582281,,response,,,,99,,,,,,,Space,keypress(Space),,,,,,,,---- -- ----- -- ------ - ------- --- ----------<br>------------- ------ ------ ---- ---- ------- ----- -- ----<br>-------- ------- -- ---------- --- - --- ----- ----- ----<br>---- --- --- ----- --- ---- ---- ------- ----- ---- whether<br>--- --- -- ----- -- --- ---- -- --- ---- -- ------ ------<br>--- ----- -- ----,179406.90499998163,179406.53499995824,179101.813,179114.47999998927,179132.806,179426.35,,38,whether
screen,html.Screen,2_1_0_1_39,2021-04-26T14:41:36.819Z,,,,,,,,,,,,,,,,,53,,,,,,,,,,,,,,310.3549999302195,,response,,,,99,,,,,,,Space,keypress(Space),,,,,,,,---- -- ----- -- ------ - ------- --- ----------<br>------------- ------ ------ ---- ---- ------- ----- -- ----<br>-------- ------- -- ---------- --- - --- ----- ----- ----<br>---- --- --- ----- --- ---- ---- ------- ----- ---- -------<br>you --- -- ----- -- --- ---- -- --- ---- -- ------ ------<br>--- ----- -- ----,179737.20500001218,179736.70499993023,179399.543,179406.97499993257,179426.35,179756.001,,39,you
screen,html.Screen,2_1_0_1_40,2021-04-26T14:41:37.058Z,,,,,,,,,,,,,,,,,53,,,,,,,,,,,,,,219.6739999942365,,response,,,,99,,,,,,,Space,keypress(Space),,,,,,,,---- -- ----- -- ------ - ------- --- ----------<br>------------- ------ ------ ---- ---- ------- ----- -- ----<br>-------- ------- -- ---------- --- - --- ----- ----- ----<br>---- --- --- ----- --- ---- ---- ------- ----- ---- -------<br>--- are -- ----- -- --- ---- -- --- ---- -- ------ ------<br>--- ----- -- ----,179976.15999996196,179975.67499999423,179725.289,179737.25999996532,179756.001,179994.757,,40,are
screen,html.Screen,2_1_0_1_41,2021-04-26T14:41:37.362Z,,,,,,,,,,,,,,,,,53,,,,,,,,,,,,,,284.8129998969089,,response,,,,99,,,,,,,Space,keypress(Space),,,,,,,,---- -- ----- -- ------ - ------- --- ----------<br>------------- ------ ------ ---- ---- ------- ----- -- ----<br>-------- ------- -- ---------- --- - --- ----- ----- ----<br>---- --- --- ----- --- ---- ---- ------- ----- ---- -------<br>--- --- as ----- -- --- ---- -- --- ---- -- ------ ------<br>--- ----- -- ----,180279.9099999247,180279.56999989692,179972.02,179976.23499995098,179994.757,180298.863,,41,as
screen,html.Screen,2_1_0_1_42,2021-04-26T14:41:37.580Z,,,,,,,,,,,,,,,,,53,,,,,,,,,,,,,,198.4919999995036,,response,,,,99,,,,,,,Space,keypress(Space),,,,,,,,---- -- ----- -- ------ - ------- --- ----------<br>------------- ------ ------ ---- ---- ------- ----- -- ----<br>-------- ------- -- ---------- --- - --- ----- ----- ----<br>---- --- --- ----- --- ---- ---- ------- ----- ---- -------<br>--- --- -- close -- --- ---- -- --- ---- -- ------ ------<br>--- ----- -- ----,180497.73499998264,180497.35499999952,180276.719,180279.96999991592,180298.863,180517.395,,42,close
screen,html.Screen,2_1_0_1_43,2021-04-26T14:41:37.832Z,,,,,,,,,,,,,,,,,53,,,,,,,,,,,,,,231.9049999085546,,response,,,,99,,,,,,,Space,keypress(Space),,,,,,,,---- -- ----- -- ------ - ------- --- ----------<br>------------- ------ ------ ---- ---- ------- ----- -- ----<br>-------- ------- -- ---------- --- - --- ----- ----- ----<br>---- --- --- ----- --- ---- ---- ------- ----- ---- -------<br>--- --- -- ----- as --- ---- -- --- ---- -- ------ ------<br>--- ----- -- ----,180749.6899999678,180749.29999990854,180497.875,180497.78999993578,180517.395,180755.667,,43,as
screen,html.Screen,2_1_0_1_44,2021-04-26T14:41:38.099Z,,,,,,,,,,,,,,,,,53,,,,,,,,,,,,,,260.7230000043346,,response,,,,99,,,,,,,Space,keypress(Space),,,,,,,,---- -- ----- -- ------ - ------- --- ----------<br>------------- ------ ------ ---- ---- ------- ----- -- ----<br>-------- ------- -- ---------- --- - --- ----- ----- ----<br>---- --- --- ----- --- ---- ---- ------- ----- ---- -------<br>--- --- -- ----- -- you ---- -- --- ---- -- ------ ------<br>--- ----- -- ----,181016.8349999003,181016.39000000432,180749.501,180749.75999991875,180755.667,181037.157,,44,you
screen,html.Screen,2_1_0_1_45,2021-04-26T14:41:38.374Z,,,,,,,,,,,,,,,,,53,,,,,,,,,,,,,,254.45799999462906,,response,,,,99,,,,,,,Space,keypress(Space),,,,,,,,---- -- ----- -- ------ - ------- --- ----------<br>------------- ------ ------ ---- ---- ------- ----- -- ----<br>-------- ------- -- ---------- --- - --- ----- ----- ----<br>---- --- --- ----- --- ---- ---- ------- ----- ---- -------<br>--- --- -- ----- -- --- want -- --- ---- -- ------ ------<br>--- ----- -- ----,181292.0949999243,181291.61499999464,181005.568,181017.50999991782,181037.157,181311.309,,45,want
screen,html.Screen,2_1_0_1_46,2021-04-26T14:41:38.664Z,,,,,,,,,,,,,,,,,53,,,,,,,,,,,,,,270.4009999403497,,response,,,,99,,,,,,,Space,keypress(Space),,,,,,,,---- -- ----- -- ------ - ------- --- ----------<br>------------- ------ ------ ---- ---- ------- ----- -- ----<br>-------- ------- -- ---------- --- - --- ----- ----- ----<br>---- --- --- ----- --- ---- ---- ------- ----- ---- -------<br>--- --- -- ----- -- --- ---- to --- ---- -- ------ ------<br>--- ----- -- ----,181582.2399999015,181581.70999994036,181285.934,181292.17999998946,181311.309,181601.626,,46,to
screen,html.Screen,2_1_0_1_47,2021-04-26T14:41:38.919Z,,,,,,,,,,,,,,,,,53,,,,,,,,,,,,,,235.12899993843166,,response,,,,99,,,,,,,Space,keypress(Space),,,,,,,,"---- -- ----- -- ------ - ------- --- ----------<br>------------- ------ ------ ---- ---- ------- ----- -- ----<br>-------- ------- -- ---------- --- - --- ----- ----- ----<br>---- --- --- ----- --- ---- ---- ------- ----- ---- -------<br>--- --- -- ----- -- --- ---- -- be, ---- -- ------ ------<br>--- ----- -- ----",181837.20999991056,181836.75499993842,181576.722,181582.30000000913,181601.626,181848.069,,47,"be,"
screen,html.Screen,2_1_0_1_48,2021-04-26T14:41:39.189Z,,,,,,,,,,,,,,,,,53,,,,,,,,,,,,,,258.3009999358619,,response,,,,99,,,,,,,Space,keypress(Space),,,,,,,,---- -- ----- -- ------ - ------- --- ----------<br>------------- ------ ------ ---- ---- ------- ----- -- ----<br>-------- ------- -- ---------- --- - --- ----- ----- ----<br>---- --- --- ----- --- ---- ---- ------- ----- ---- -------<br>--- --- -- ----- -- --- ---- -- --- even -- ------ ------<br>--- ----- -- ----,182106.80499998853,182106.36999993585,181833.512,181837.2649999801,181848.069,182126.13,,48,even
screen,html.Screen,2_1_0_1_49,2021-04-26T14:41:39.466Z,,,,,,,,,,,,,,,,,53,,,,,,,,,,,,,,257.44499998528045,,response,,,,99,,,,,,,Space,keypress(Space),,,,,,,,---- -- ----- -- ------ - ------- --- ----------<br>------------- ------ ------ ---- ---- ------- ----- -- ----<br>-------- ------- -- ---------- --- - --- ----- ----- ----<br>---- --- --- ----- --- ---- ---- ------- ----- ---- -------<br>--- --- -- ----- -- --- ---- -- --- ---- if ------ ------<br>--- ----- -- ----,182384.1699999757,182383.57499998529,182097.449,182106.85999994166,182126.13,182403.771,,49,if
screen,html.Screen,2_1_0_1_50,2021-04-26T14:41:39.679Z,,,,,,,,,,,,,,,,,53,,,,,,,,,,,,,,193.11400000628782,,response,,,,99,,,,,,,Space,keypress(Space),,,,,,,,---- -- ----- -- ------ - ------- --- ----------<br>------------- ------ ------ ---- ---- ------- ----- -- ----<br>-------- ------- -- ---------- --- - --- ----- ----- ----<br>---- --- --- ----- --- ---- ---- ------- ----- ---- -------<br>--- --- -- ----- -- --- ---- -- --- ---- -- that's ------<br>--- ----- -- ----,182597.31999994256,182596.8850000063,182375.092,182384.22999996692,182403.771,182601.622,,50,that's
screen,html.Screen,2_1_0_1_51,2021-04-26T14:41:40.026Z,,,,,,,,,,,,,,,,,53,,,,,,,,,,,,,,342.2429999210581,,response,,,,99,,,,,,,Space,keypress(Space),,,,,,,,---- -- ----- -- ------ - ------- --- ----------<br>------------- ------ ------ ---- ---- ------- ----- -- ----<br>-------- ------- -- ---------- --- - --- ----- ----- ----<br>---- --- --- ----- --- ---- ---- ------- ----- ---- -------<br>--- --- -- ----- -- --- ---- -- --- ---- -- ------ really<br>--- ----- -- ----,182944.38000000082,182943.86499992106,182585.537,182597.37999993376,182601.622,182952.661,,51,really
screen,html.Screen,2_1_0_1_52,2021-04-26T14:41:40.356Z,,,,,,,,,,,,,,,,,53,,,,,,,,,,,,,,320.91399999926216,,response,,,,99,,,,,,,Space,keypress(Space),,,,,,,,---- -- ----- -- ------ - ------- --- ----------<br>------------- ------ ------ ---- ---- ------- ----- -- ----<br>-------- ------- -- ---------- --- - --- ----- ----- ----<br>---- --- --- ----- --- ---- ---- ------- ----- ---- -------<br>--- --- -- ----- -- --- ---- -- --- ---- -- ------ ------<br>not ----- -- ----,183273.98999989964,183273.57499999925,182934.746,182944.46999998763,182952.661,183286.959,,52,not
screen,html.Screen,2_1_0_1_53,2021-04-26T14:41:40.724Z,,,,,,,,,,,,,,,,,53,,,,,,,,,,,,,,354.14599992966396,,response,,,,99,,,,,,,Space,keypress(Space),,,,,,,,---- -- ----- -- ------ - ------- --- ----------<br>------------- ------ ------ ---- ---- ------- ----- -- ----<br>-------- ------- -- ---------- --- - --- ----- ----- ----<br>---- --- --- ----- --- ---- ---- ------- ----- ---- -------<br>--- --- -- ----- -- --- ---- -- --- ---- -- ------ ------<br>--- close -- ----,183641.62499993108,183641.10499992967,183269.434,183274.059999967,183286.959,183654.731,,53,close
screen,html.Screen,2_1_0_1_54,2021-04-26T14:41:41.069Z,,,,,,,,,,,,,,,,,53,,,,,,,,,,,,,,331.7939999566006,,response,,,,99,,,,,,,Space,keypress(Space),,,,,,,,---- -- ----- -- ------ - ------- --- ----------<br>------------- ------ ------ ---- ---- ------- ----- -- ----<br>-------- ------- -- ---------- --- - --- ----- ----- ----<br>---- --- --- ----- --- ---- ---- ------- ----- ---- -------<br>--- --- -- ----- -- --- ---- -- --- ---- -- ------ ------<br>--- ----- at ----,183986.84499994852,183986.5249999566,183636.891,183641.6849999223,183654.731,184006.479,,54,at
screen,html.Screen,2_1_0_1_55,2021-04-26T14:41:41.420Z,,,,,,,,,,,,,,,,,53,,,,,,,,,,,,,,331.55599990609335,,response,,,,99,,,,,,,Space,keypress(Space),,,,,,,,---- -- ----- -- ------ - ------- --- ----------<br>------------- ------ ------ ---- ---- ------- ----- -- ----<br>-------- ------- -- ---------- --- - --- ----- ----- ----<br>---- --- --- ----- --- ---- ---- ------- ----- ---- -------<br>--- --- -- ----- -- --- ---- -- --- ---- -- ------ ------<br>--- ----- -- all.,184338.50499999244,184338.03499990609,183971.725,183986.91499989945,184006.479,184357.05,,55,all.
Item 99,flow.Loop,2_1_0_1,2021-04-26T14:41:41.421Z,,,,,,,,,,,,,,,,,,,,,,,,,,,,,,,17927.092999906075,,completion,,,,,C,,,,,,,,,,,silence,,,,,184338.63999997266,184338.03499990609,166394.371,166395.0149999,166410.942,184357.05,,,
Question 1,html.Screen,2_1_0_2,2021-04-26T14:41:46.560Z,,,,,,,,,,,,,,,,,,,,,,,,,,,,true,FALSE,,5120.544999945734,,response,,,,99,C,,,,,,FALSE,click #choice-2,,,,silence,,,,,189478.20499993395,189477.59499994572,184338.612,184338.68499996606,184357.05,189495.366,,,
Question 2,html.Screen,2_1_0_3,2021-04-26T14:41:51.013Z,,,,,,,,,,,,,,,,,,,,,,,,,,,,true,TRUE,,4435.523999959609,,response,,,,99,C,,,,,,TRUE,click #choice-1,,,,silence,,,,,193931.51999998372,193930.88999995962,189462.84,189478.30999991857,189495.366,193934.199,,,
Item 99,flow.Sequence,2_1_0,2021-04-26T14:41:51.013Z,,,,,,,,,,,,,,,,,,,,,,,,,,,,,,,37512.565999959625,,completion,,,,,,,,,,,,,,,,,,,,,193931.61999993026,193930.88999995962,156400.535,156404.46999995038,156418.324,193934.199,,,
Holding screen,html.Screen,2_1_1_0,2021-04-26T14:42:00.995Z,,,,,,,,,,,,,,,,,,,,,,,,,,,,,,,9995.546000000002,,timeout,,,,,,,,,,,,,,,,,,,,,203914.04499998316,203913.604,193924.424,193931.69499991927,193934.199,203929.745,,,
screen,html.Screen,2_1_1_1_0,2021-04-26T14:42:01.755Z,,,,,,,,,,,,,,,,,54,,,,,,,,,,,,,,743.7599999551894,,response,,,,100,,,,,,,Space,keypress(Space),,,,,,,,At --- ---- --- ------ ----- ------- ---- -- --- ------- --<br>------- ---------- ------ -- ----- -- ----- -- ---- ------<br>--- ----- --- --- ------ -------- ----- --- ------ ----- --<br>----- ----- ---------- --- --- ------ ------ ---- -- ------<br>------- --- ------ ----- --- ---- ------- -- ---- --- --<br>------- ------,204673.92500001006,204673.50499995518,203913.604,203914.1449999297,203929.745,204692.472,,0,At
screen,html.Screen,2_1_1_1_1,2021-04-26T14:42:01.993Z,,,,,,,,,,,,,,,,,54,,,,,,,,,,,,,,219.31300000386545,,response,,,,100,,,,,,,Space,keypress(Space),,,,,,,,-- the ---- --- ------ ----- ------- ---- -- --- ------- --<br>------- ---------- ------ -- ----- -- ----- -- ---- ------<br>--- ----- --- --- ------ -------- ----- --- ------ ----- --<br>----- ----- ---------- --- --- ------ ------ ---- -- ------<br>------- --- ------ ----- --- ---- ------- -- ---- --- --<br>------- ------,204912.19999990426,204911.78500000387,204663.583,204673.98999992292,204692.472,204916.11,,1,the
screen,html.Screen,2_1_1_1_2,2021-04-26T14:42:02.185Z,,,,,,,,,,,,,,,,,54,,,,,,,,,,,,,,187.41000000422355,,response,,,,100,,,,,,,Space,keypress(Space),,,,,,,,-- --- time --- ------ ----- ------- ---- -- --- ------- --<br>------- ---------- ------ -- ----- -- ----- -- ---- ------<br>--- ----- --- --- ------ -------- ----- --- ------ ----- --<br>----- ----- ---------- --- --- ------ ------ ---- -- ------<br>------- --- ------ ----- --- ---- ------- -- ---- --- --<br>------- ------,205103.76999992877,205103.5200000042,204908.492,204912.26000001188,204916.11,205121.925,,2,time
screen,html.Screen,2_1_1_1_3,2021-04-26T14:42:02.372Z,,,,,,,,,,,,,,,,,54,,,,,,,,,,,,,,168.624999917869,,response,,,,100,,,,,,,Space,keypress(Space),,,,,,,,-- --- ---- the ------ ----- ------- ---- -- --- ------- --<br>------- ---------- ------ -- ----- -- ----- -- ---- ------<br>--- ----- --- --- ------ -------- ----- --- ------ ----- --<br>----- ----- ---------- --- --- ------ ------ ---- -- ------<br>------- --- ------ ----- --- ---- ------- -- ---- --- --<br>------- ------,205291.05999995954,205290.54999991786,205099.566,205103.82999991998,205121.925,205301.157,,3,the
screen,html.Screen,2_1_1_1_4,2021-04-26T14:42:02.540Z,,,,,,,,,,,,,,,,,54,,,,,,,,,,,,,,157.85299999138806,,response,,,,100,,,,,,,Space,keypress(Space),,,,,,,,-- --- ---- --- French ----- ------- ---- -- --- ------- --<br>------- ---------- ------ -- ----- -- ----- -- ---- ------<br>--- ----- --- --- ------ -------- ----- --- ------ ----- --<br>----- ----- ---------- --- --- ------ ------ ---- -- ------<br>------- --- ------ ----- --- ---- ------- -- ---- --- --<br>------- ------,205459.43499996793,205459.0099999914,205288.544,205291.11999995075,205301.157,205478.552,,4,French
screen,html.Screen,2_1_1_1_5,2021-04-26T14:42:02.978Z,,,,,,,,,,,,,,,,,54,,,,,,,,,,,,,,417.65799991894164,,response,,,,100,,,,,,,Space,keypress(Space),,,,,,,,-- --- ---- --- ------ crown ------- ---- -- --- ------- --<br>------- ---------- ------ -- ----- -- ----- -- ---- ------<br>--- ----- --- --- ------ -------- ----- --- ------ ----- --<br>----- ----- ---------- --- --- ------ ------ ---- -- ------<br>------- --- ------ ----- --- ---- ------- -- ---- --- --<br>------- ------,205896.58999990206,205896.20999991894,205451.003,205459.48999992106,205478.552,205915.036,,5,crown
screen,html.Screen,2_1_1_1_6,2021-04-26T14:42:03.243Z,,,,,,,,,,,,,,,,,54,,,,,,,,,,,,,,246.98899996871478,,response,,,,100,,,,,,,Space,keypress(Space),,,,,,,,-- --- ---- --- ------ ----- secured ---- -- --- ------- --<br>------- ---------- ------ -- ----- -- ----- -- ---- ------<br>--- ----- --- --- ------ -------- ----- --- ------ ----- --<br>----- ----- ---------- --- --- ------ ------ ---- -- ------<br>------- --- ------ ----- --- ---- ------- -- ---- --- --<br>------- ------,206162.41999994963,206162.0249999687,205894.308,205896.65499993134,205915.036,206182.425,,6,secured
screen,html.Screen,2_1_1_1_7,2021-04-26T14:42:03.527Z,,,,,,,,,,,,,,,,,54,,,,,,,,,,,,,,263.0199999611941,,response,,,,100,,,,,,,Space,keypress(Space),,,,,,,,-- --- ---- --- ------ ----- ------- much -- --- ------- --<br>------- ---------- ------ -- ----- -- ----- -- ---- ------<br>--- ----- --- --- ------ -------- ----- --- ------ ----- --<br>----- ----- ---------- --- --- ------ ------ ---- -- ------<br>------- --- ------ ----- --- ---- ------- -- ---- --- --<br>------- ------,206445.8249999443,206445.44499996118,206148.098,206162.48999990057,206182.425,206450.576,,7,much
screen,html.Screen,2_1_1_1_8,2021-04-26T14:42:03.804Z,,,,,,,,,,,,,,,,,54,,,,,,,,,,,,,,272.2789999417728,,response,,,,100,,,,,,,Space,keypress(Space),,,,,,,,-- --- ---- --- ------ ----- ------- ---- of --- ------- --<br>------- ---------- ------ -- ----- -- ----- -- ---- ------<br>--- ----- --- --- ------ -------- ----- --- ------ ----- --<br>----- ----- ---------- --- --- ------ ------ ---- -- ------<br>------- --- ------ ----- --- ---- ------- -- ---- --- --<br>------- ------,206723.3099999139,206722.85499994177,206430.419,206445.89500001166,206450.576,206735.132,,8,of
screen,html.Screen,2_1_1_1_9,2021-04-26T14:42:04.111Z,,,,,,,,,,,,,,,,,54,,,,,,,,,,,,,,294.5729999935429,,response,,,,100,,,,,,,Space,keypress(Space),,,,,,,,-- --- ---- --- ------ ----- ------- ---- -- its ------- --<br>------- ---------- ------ -- ----- -- ----- -- ---- ------<br>--- ----- --- --- ------ -------- ----- --- ------ ----- --<br>----- ----- ---------- --- --- ------ ------ ---- -- ------<br>------- --- ------ ----- --- ---- ------- -- ---- --- --<br>------- ------,207030.1449999679,207029.70499999356,206717.43,206723.38499990292,206735.132,207049.382,,9,its
screen,html.Screen,2_1_1_1_10,2021-04-26T14:42:04.694Z,,,,,,,,,,,,,,,,,54,,,,,,,,,,,,,,563.5479999447416,,response,,,,100,,,,,,,Space,keypress(Space),,,,,,,,-- --- ---- --- ------ ----- ------- ---- -- --- revenue --<br>------- ---------- ------ -- ----- -- ----- -- ---- ------<br>--- ----- --- --- ------ -------- ----- --- ------ ----- --<br>----- ----- ---------- --- --- ------ ------ ---- -- ------<br>------- --- ------ ----- --- ---- ------- -- ---- --- --<br>------- ------,207613.26000001281,207612.92999994475,207018.21,207030.20999999717,207049.382,207631.84,,10,revenue
screen,html.Screen,2_1_1_1_11,2021-04-26T14:42:05.023Z,,,,,,,,,,,,,,,,,54,,,,,,,,,,,,,,309.514999900799,,response,,,,100,,,,,,,Space,keypress(Space),,,,,,,,-- --- ---- --- ------ ----- ------- ---- -- --- ------- by<br>------- ---------- ------ -- ----- -- ----- -- ---- ------<br>--- ----- --- --- ------ -------- ----- --- ------ ----- --<br>----- ----- ---------- --- --- ------ ------ ---- -- ------<br>------- --- ------ ----- --- ---- ------- -- ---- --- --<br>------- ------,207941.89999997616,207941.3549999008,207598.186,207613.32999996375,207631.84,207960.436,,11,by
screen,html.Screen,2_1_1_1_12,2021-04-26T14:42:05.319Z,,,,,,,,,,,,,,,,,54,,,,,,,,,,,,,,277.17399995285086,,response,,,,100,,,,,,,Space,keypress(Space),,,,,,,,-- --- ---- --- ------ ----- ------- ---- -- --- ------- --<br>issuing ---------- ------ -- ----- -- ----- -- ---- ------<br>--- ----- --- --- ------ -------- ----- --- ------ ----- --<br>----- ----- ---------- --- --- ------ ------ ---- -- ------<br>------- --- ------ ----- --- ---- ------- -- ---- --- --<br>------- ------,208238.09999995865,208237.60999995284,207931.698,207941.97499996517,207960.436,208245.773,,12,issuing
screen,html.Screen,2_1_1_1_13,2021-04-26T14:42:05.561Z,,,,,,,,,,,,,,,,,54,,,,,,,,,,,,,,233.3619999141083,,response,,,,100,,,,,,,Space,keypress(Space),,,,,,,,-- --- ---- --- ------ ----- ------- ---- -- --- ------- --<br>------- government ------ -- ----- -- ----- -- ---- ------<br>--- ----- --- --- ------ -------- ----- --- ------ ----- --<br>----- ----- ---------- --- --- ------ ------ ---- -- ------<br>------- --- ------ ----- --- ---- ------- -- ---- --- --<br>------- ------,208479.64999999385,208479.1349999141,208227.124,208238.15999994986,208245.773,208488.363,,13,government
screen,html.Screen,2_1_1_1_14,2021-04-26T14:42:05.834Z,,,,,,,,,,,,,,,,,54,,,,,,,,,,,,,,264.18699997558724,,response,,,,100,,,,,,,Space,keypress(Space),,,,,,,,-- --- ---- --- ------ ----- ------- ---- -- --- ------- --<br>------- ---------- bonds. -- ----- -- ----- -- ---- ------<br>--- ----- --- --- ------ -------- ----- --- ------ ----- --<br>----- ----- ---------- --- --- ------ ------ ---- -- ------<br>------- --- ------ ----- --- ---- ------- -- ---- --- --<br>------- ------,208752.95499991626,208752.5499999756,208479.262,208479.704999947,208488.363,208771.428,,14,bonds.
screen,html.Screen,2_1_1_1_15,2021-04-26T14:42:06.335Z,,,,,,,,,,,,,,,,,54,,,,,,,,,,,,,,482.43199993885355,,response,,,,100,,,,,,,Space,keypress(Space),,,,,,,,-- --- ---- --- ------ ----- ------- ---- -- --- ------- --<br>------- ---------- ------ In ----- -- ----- -- ---- ------<br>--- ----- --- --- ------ -------- ----- --- ------ ----- --<br>----- ----- ---------- --- --- ------ ------ ---- -- ------<br>------- --- ------ ----- --- ---- ------- -- ---- --- --<br>------- ------,209254.36499994248,209253.85999993887,208738.444,208753.0099999858,208771.428,209272.836,,15,In
screen,html.Screen,2_1_1_1_16,2021-04-26T14:42:06.590Z,,,,,,,,,,,,,,,,,54,,,,,,,,,,,,,,236.2789999061497,,response,,,,100,,,,,,,Space,keypress(Space),,,,,,,,"-- --- ---- --- ------ ----- ------- ---- -- --- ------- --<br>------- ---------- ------ -- 1727, -- ----- -- ---- ------<br>--- ----- --- --- ------ -------- ----- --- ------ ----- --<br>----- ----- ---------- --- --- ------ ------ ---- -- ------<br>------- --- ------ ----- --- ---- ------- -- ---- --- --<br>------- ------",209509.42499993835,209509.11499990616,209254.366,209254.43500000983,209272.836,209524.291,,16,"1727,"
screen,html.Screen,2_1_1_1_17,2021-04-26T14:42:06.926Z,,,,,,,,,,,,,,,,,54,,,,,,,,,,,,,,320.02899991648155,,response,,,,100,,,,,,,Space,keypress(Space),,,,,,,,-- --- ---- --- ------ ----- ------- ---- -- --- ------- --<br>------- ---------- ------ -- ----- in ----- -- ---- ------<br>--- ----- --- --- ------ -------- ----- --- ------ ----- --<br>----- ----- ---------- --- --- ------ ------ ---- -- ------<br>------- --- ------ ----- --- ---- ------- -- ---- --- --<br>------- ------,209844.74500000942,209844.31999991648,209506.291,209509.48499992955,209524.291,209863.211,,17,in
screen,html.Screen,2_1_1_1_18,2021-04-26T14:42:07.332Z,,,,,,,,,,,,,,,,,54,,,,,,,,,,,,,,387.8389999625506,,response,,,,100,,,,,,,Space,keypress(Space),,,,,,,,-- --- ---- --- ------ ----- ------- ---- -- --- ------- --<br>------- ---------- ------ -- ----- -- order -- ---- ------<br>--- ----- --- --- ------ -------- ----- --- ------ ----- --<br>----- ----- ---------- --- --- ------ ------ ---- -- ------<br>------- --- ------ ----- --- ---- ------- -- ---- --- --<br>------- ------,210251.4449999435,210251.04999996256,209840.359,209844.80500000063,209863.211,210270.382,,18,order
screen,html.Screen,2_1_1_1_19,2021-04-26T14:42:07.607Z,,,,,,,,,,,,,,,,,54,,,,,,,,,,,,,,255.70299990309286,,response,,,,100,,,,,,,Space,keypress(Space),,,,,,,,-- --- ---- --- ------ ----- ------- ---- -- --- ------- --<br>------- ---------- ------ -- ----- -- ----- to ---- ------<br>--- ----- --- --- ------ -------- ----- --- ------ ----- --<br>----- ----- ---------- --- --- ------ ------ ---- -- ------<br>------- --- ------ ----- --- ---- ------- -- ---- --- --<br>------- ------,210526.39999997336,210526.0849999031,210246.436,210251.5049999347,210270.382,210541.527,,19,to
screen,html.Screen,2_1_1_1_20,2021-04-26T14:42:07.845Z,,,,,,,,,,,,,,,,,54,,,,,,,,,,,,,,222.40299989911728,,response,,,,100,,,,,,,Space,keypress(Space),,,,,,,,-- --- ---- --- ------ ----- ------- ---- -- --- ------- --<br>------- ---------- ------ -- ----- -- ----- -- save ------<br>--- ----- --- --- ------ -------- ----- --- ------ ----- --<br>----- ----- ---------- --- --- ------ ------ ---- -- ------<br>------- --- ------ ----- --- ---- ------- -- ---- --- --<br>------- ------,210764.37499991152,210763.92999989912,210519.532,210526.4699999243,210541.527,210776.179,,20,save
screen,html.Screen,2_1_1_1_21,2021-04-26T14:42:08.144Z,,,,,,,,,,,,,,,,,54,,,,,,,,,,,,,,286.37099991505966,,response,,,,100,,,,,,,Space,keypress(Space),,,,,,,,"-- --- ---- --- ------ ----- ------- ---- -- --- ------- --<br>------- ---------- ------ -- ----- -- ----- -- ---- money,<br>--- ----- --- --- ------ -------- ----- --- ------ ----- --<br>----- ----- ---------- --- --- ------ ------ ---- -- ------<br>------- --- ------ ----- --- ---- ------- -- ---- --- --<br>------- ------",211063.08499991428,211062.54999991506,210757.735,210764.4399999408,210776.179,211081.73,,21,"money,"
screen,html.Screen,2_1_1_1_22,2021-04-26T14:42:08.456Z,,,,,,,,,,,,,,,,,54,,,,,,,,,,,,,,292.5749999466061,,response,,,,100,,,,,,,Space,keypress(Space),,,,,,,,-- --- ---- --- ------ ----- ------- ---- -- --- ------- --<br>------- ---------- ------ -- ----- -- ----- -- ---- ------<br>the ----- --- --- ------ -------- ----- --- ------ ----- --<br>----- ----- ---------- --- --- ------ ------ ---- -- ------<br>------- --- ------ ----- --- ---- ------- -- ---- --- --<br>------- ------,211374.67499997,211374.30499994662,211060.053,211063.1599999033,211081.73,211393.142,,22,the
screen,html.Screen,2_1_1_1_23,2021-04-26T14:42:08.677Z,,,,,,,,,,,,,,,,,54,,,,,,,,,,,,,,202.1530000064522,,response,,,,100,,,,,,,Space,keypress(Space),,,,,,,,-- --- ---- --- ------ ----- ------- ---- -- --- ------- --<br>------- ---------- ------ -- ----- -- ----- -- ---- ------<br>--- state --- --- ------ -------- ----- --- ------ ----- --<br>----- ----- ---------- --- --- ------ ------ ---- -- ------<br>------- --- ------ ----- --- ---- ------- -- ---- --- --<br>------- ------,211595.69499990903,211595.29500000644,211364.631,211374.74999995902,211393.142,211598.462,,23,state
screen,html.Screen,2_1_1_1_24,2021-04-26T14:42:08.896Z,,,,,,,,,,,,,,,,,54,,,,,,,,,,,,,,215.6829999529873,,response,,,,100,,,,,,,Space,keypress(Space),,,,,,,,-- --- ---- --- ------ ----- ------- ---- -- --- ------- --<br>------- ---------- ------ -- ----- -- ----- -- ---- ------<br>--- ----- cut --- ------ -------- ----- --- ------ ----- --<br>----- ----- ---------- --- --- ------ ------ ---- -- ------<br>------- --- ------ ----- --- ---- ------- -- ---- --- --<br>------- ------,211814.53500001226,211814.144999953,211593.132,211595.76499997638,211598.462,211847.725,,24,cut
screen,html.Screen,2_1_1_1_25,2021-04-26T14:42:09.147Z,,,,,,,,,,,,,,,,,54,,,,,,,,,,,,,,217.63999992943718,,response,,,,100,,,,,,,Space,keypress(Space),,,,,,,,-- --- ---- --- ------ ----- ------- ---- -- --- ------- --<br>------- ---------- ------ -- ----- -- ----- -- ---- ------<br>--- ----- --- the ------ -------- ----- --- ------ ----- --<br>----- ----- ---------- --- --- ------ ------ ---- -- ------<br>------- --- ------ ----- --- ---- ------- -- ---- --- --<br>------- ------,212065.7249999931,212065.36499992944,211798.677,211814.59500000346,211847.725,212084.979,,25,the
screen,html.Screen,2_1_1_1_26,2021-04-26T14:42:09.373Z,,,,,,,,,,,,,,,,,54,,,,,,,,,,,,,,206.8559999236022,,response,,,,100,,,,,,,Space,keypress(Space),,,,,,,,-- --- ---- --- ------ ----- ------- ---- -- --- ------- --<br>------- ---------- ------ -- ----- -- ----- -- ---- ------<br>--- ----- --- --- bonds' -------- ----- --- ------ ----- --<br>----- ----- ---------- --- --- ------ ------ ---- -- ------<br>------- --- ------ ----- --- ---- ------- -- ---- --- --<br>------- ------,212292.19999990892,212291.8349999236,212065.837,212065.79999998212,212084.979,212299.072,,26,bonds'
screen,html.Screen,2_1_1_1_27,2021-04-26T14:42:09.624Z,,,,,,,,,,,,,,,,,54,,,,,,,,,,,,,,243.52300000627292,,response,,,,100,,,,,,,Space,keypress(Space),,,,,,,,-- --- ---- --- ------ ----- ------- ---- -- --- ------- --<br>------- ---------- ------ -- ----- -- ----- -- ---- ------<br>--- ----- --- --- ------ interest ----- --- ------ ----- --<br>----- ----- ---------- --- --- ------ ------ ---- -- ------<br>------- --- ------ ----- --- ---- ------- -- ---- --- --<br>------- ------,212543.0499999784,212542.59500000626,212283.781,212292.2649999382,212299.072,212562.725,,27,interest
screen,html.Screen,2_1_1_1_28,2021-04-26T14:42:09.906Z,,,,,,,,,,,,,,,,,54,,,,,,,,,,,,,,261.87499993442907,,response,,,,100,,,,,,,Space,keypress(Space),,,,,,,,-- --- ---- --- ------ ----- ------- ---- -- --- ------- --<br>------- ---------- ------ -- ----- -- ----- -- ---- ------<br>--- ----- --- --- ------ -------- rate. --- ------ ----- --<br>----- ----- ---------- --- --- ------ ------ ---- -- ------<br>------- --- ------ ----- --- ---- ------- -- ---- --- --<br>------- ------,212825.0349999871,212824.59999993443,212532.495,212543.14999992494,212562.725,212844.257,,28,rate.
screen,html.Screen,2_1_1_1_29,2021-04-26T14:42:10.129Z,,,,,,,,,,,,,,,,,54,,,,,,,,,,,,,,202.96299994943547,,response,,,,100,,,,,,,Space,keypress(Space),,,,,,,,-- --- ---- --- ------ ----- ------- ---- -- --- ------- --<br>------- ---------- ------ -- ----- -- ----- -- ---- ------<br>--- ----- --- --- ------ -------- ----- The ------ ----- --<br>----- ----- ---------- --- --- ------ ------ ---- -- ------<br>------- --- ------ ----- --- ---- ------- -- ---- --- --<br>------- ------,213047.64999996405,213047.21999994945,212811.648,212825.09499997832,212844.257,213058.394,,29,The
screen,html.Screen,2_1_1_1_30,2021-04-26T14:42:10.460Z,,,,,,,,,,,,,,,,,54,,,,,,,,,,,,,,319.7159999323485,,response,,,,100,,,,,,,Space,keypress(Space),,,,,,,,-- --- ---- --- ------ ----- ------- ---- -- --- ------- --<br>------- ---------- ------ -- ----- -- ----- -- ---- ------<br>--- ----- --- --- ------ -------- ----- --- market ----- --<br>----- ----- ---------- --- --- ------ ------ ---- -- ------<br>------- --- ------ ----- --- ---- ------- -- ---- --- --<br>------- ------,213378.47999995574,213378.10999993235,213043.225,213047.70999995526,213058.394,213395.818,,30,market
screen,html.Screen,2_1_1_1_31,2021-04-26T14:42:10.719Z,,,,,,,,,,,,,,,,,54,,,,,,,,,,,,,,241.22699998129974,,response,,,,100,,,,,,,Space,keypress(Space),,,,,,,,-- --- ---- --- ------ ----- ------- ---- -- --- ------- --<br>------- ---------- ------ -- ----- -- ----- -- ---- ------<br>--- ----- --- --- ------ -------- ----- --- ------ value --<br>----- ----- ---------- --- --- ------ ------ ---- -- ------<br>------- --- ------ ----- --- ---- ------- -- ---- --- --<br>------- ------,213637.47999991756,213637.0449999813,213375.008,213378.55499994475,213395.818,213652.992,,31,value
screen,html.Screen,2_1_1_1_32,2021-04-26T14:42:10.987Z,,,,,,,,,,,,,,,,,54,,,,,,,,,,,,,,252.4279999663995,,response,,,,100,,,,,,,Space,keypress(Space),,,,,,,,-- --- ---- --- ------ ----- ------- ---- -- --- ------- --<br>------- ---------- ------ -- ----- -- ----- -- ---- ------<br>--- ----- --- --- ------ -------- ----- --- ------ ----- of<br>----- ----- ---------- --- --- ------ ------ ---- -- ------<br>------- --- ------ ----- --- ---- ------- -- ---- --- --<br>------- ------,213905.76499991585,213905.4199999664,213628.741,213637.57499994244,213652.992,213925.385,,32,of
screen,html.Screen,2_1_1_1_33,2021-04-26T14:42:11.207Z,,,,,,,,,,,,,,,,,54,,,,,,,,,,,,,,200.28499997942708,,response,,,,100,,,,,,,Space,keypress(Space),,,,,,,,-- --- ---- --- ------ ----- ------- ---- -- --- ------- --<br>------- ---------- ------ -- ----- -- ----- -- ---- ------<br>--- ----- --- --- ------ -------- ----- --- ------ ----- --<br>these ----- ---------- --- --- ------ ------ ---- -- ------<br>------- --- ------ ----- --- ---- ------- -- ---- --- --<br>------- ------,214126.11499999184,214125.66999997944,213902.925,213905.83999990486,213925.385,214137.25,,33,these
screen,html.Screen,2_1_1_1_34,2021-04-26T14:42:11.409Z,,,,,,,,,,,,,,,,,54,,,,,,,,,,,,,,190.280000009574,,response,,,,100,,,,,,,Space,keypress(Space),,,,,,,,-- --- ---- --- ------ ----- ------- ---- -- --- ------- --<br>------- ---------- ------ -- ----- -- ----- -- ---- ------<br>--- ----- --- --- ------ -------- ----- --- ------ ----- --<br>----- bonds ---------- --- --- ------ ------ ---- -- ------<br>------- --- ------ ----- --- ---- ------- -- ---- --- --<br>------- ------,214327.91999995243,214327.53000000957,214123.967,214126.16999994498,214137.25,214357.086,,34,bonds
screen,html.Screen,2_1_1_1_35,2021-04-26T14:42:11.626Z,,,,,,,,,,,,,,,,,54,,,,,,,,,,,,,,187.57899993576575,,response,,,,100,,,,,,,Space,keypress(Space),,,,,,,,"-- --- ---- --- ------ ----- ------- ---- -- --- ------- --<br>------- ---------- ------ -- ----- -- ----- -- ---- ------<br>--- ----- --- --- ------ -------- ----- --- ------ ----- --<br>----- ----- plummeted, --- --- ------ ------ ---- -- ------<br>------- --- ------ ----- --- ---- ------- -- ---- --- --<br>------- ------",214545.02499999944,214544.66499993578,214320.526,214327.97999994364,214357.086,214564.142,,35,"plummeted,"
screen,html.Screen,2_1_1_1_36,2021-04-26T14:42:11.902Z,,,,,,,,,,,,,,,,,54,,,,,,,,,,,,,,256.3779999502003,,response,,,,100,,,,,,,Space,keypress(Space),,,,,,,,-- --- ---- --- ------ ----- ------- ---- -- --- ------- --<br>------- ---------- ------ -- ----- -- ----- -- ---- ------<br>--- ----- --- --- ------ -------- ----- --- ------ ----- --<br>----- ----- ---------- and --- ------ ------ ---- -- ------<br>------- --- ------ ----- --- ---- ------- -- ---- --- --<br>------- ------,214820.89999993332,214820.5199999502,214529.769,214545.10999994818,214564.142,214831.04,,36,and
screen,html.Screen,2_1_1_1_37,2021-04-26T14:42:12.140Z,,,,,,,,,,,,,,,,,54,,,,,,,,,,,,,,227.53999995350023,,response,,,,100,,,,,,,Space,keypress(Space),,,,,,,,-- --- ---- --- ------ ----- ------- ---- -- --- ------- --<br>------- ---------- ------ -- ----- -- ----- -- ---- ------<br>--- ----- --- --- ------ -------- ----- --- ------ ----- --<br>----- ----- ---------- --- the ------ ------ ---- -- ------<br>------- --- ------ ----- --- ---- ------- -- ---- --- --<br>------- ------,215059.04999992345,215058.5799999535,214813.432,214820.9949999582,214831.04,215077.979,,37,the
screen,html.Screen,2_1_1_1_38,2021-04-26T14:42:12.393Z,,,,,,,,,,,,,,,,,54,,,,,,,,,,,,,,233.22599991812604,,response,,,,100,,,,,,,Space,keypress(Space),,,,,,,,-- --- ---- --- ------ ----- ------- ---- -- --- ------- --<br>------- ---------- ------ -- ----- -- ----- -- ---- ------<br>--- ----- --- --- ------ -------- ----- --- ------ ----- --<br>----- ----- ---------- --- --- market ------ ---- -- ------<br>------- --- ------ ----- --- ---- ------- -- ---- --- --<br>------- ------,215311.56999990344,215311.20499991812,215048.001,215059.10999991465,215077.979,215330.512,,38,market
screen,html.Screen,2_1_1_1_39,2021-04-26T14:42:12.653Z,,,,,,,,,,,,,,,,,54,,,,,,,,,,,,,,240.93799993034918,,response,,,,100,,,,,,,Space,keypress(Space),,,,,,,,-- --- ---- --- ------ ----- ------- ---- -- --- ------- --<br>------- ---------- ------ -- ----- -- ----- -- ---- ------<br>--- ----- --- --- ------ -------- ----- --- ------ ----- --<br>----- ----- ---------- --- --- ------ became ---- -- ------<br>------- --- ------ ----- --- ---- ------- -- ---- --- --<br>------- ------,215571.95999997202,215571.44999993034,215310.382,215311.64500000887,215330.512,215589.21,,39,became
screen,html.Screen,2_1_1_1_40,2021-04-26T14:42:12.895Z,,,,,,,,,,,,,,,,,54,,,,,,,,,,,,,,224.15499995087157,,response,,,,100,,,,,,,Space,keypress(Space),,,,,,,,-- --- ---- --- ------ ----- ------- ---- -- --- ------- --<br>------- ---------- ------ -- ----- -- ----- -- ---- ------<br>--- ----- --- --- ------ -------- ----- --- ------ ----- --<br>----- ----- ---------- --- --- ------ ------ wary -- ------<br>------- --- ------ ----- --- ---- ------- -- ---- --- --<br>------- ------,215813.75500001013,215813.36499995086,215562.882,215572.01999996323,215589.21,215832.194,,40,wary
screen,html.Screen,2_1_1_1_41,2021-04-26T14:42:13.185Z,,,,,,,,,,,,,,,,,54,,,,,,,,,,,,,,271.56599996905425,,response,,,,100,,,,,,,Space,keypress(Space),,,,,,,,-- --- ---- --- ------ ----- ------- ---- -- --- ------- --<br>------- ---------- ------ -- ----- -- ----- -- ---- ------<br>--- ----- --- --- ------ -------- ----- --- ------ ----- --<br>----- ----- ---------- --- --- ------ ------ ---- of ------<br>------- --- ------ ----- --- ---- ------- -- ---- --- --<br>------- ------,216104.20499998145,216103.75999996904,215806.018,215813.82499996107,215832.194,216122.791,,41,of
screen,html.Screen,2_1_1_1_42,2021-04-26T14:42:13.504Z,,,,,,,,,,,,,,,,,54,,,,,,,,,,,,,,300.28899997865665,,response,,,,100,,,,,,,Space,keypress(Space),,,,,,,,-- --- ---- --- ------ ----- ------- ---- -- --- ------- --<br>------- ---------- ------ -- ----- -- ----- -- ---- ------<br>--- ----- --- --- ------ -------- ----- --- ------ ----- --<br>----- ----- ---------- --- --- ------ ------ ---- -- French<br>------- --- ------ ----- --- ---- ------- -- ---- --- --<br>------- ------,216423.42999996617,216423.07999997865,216098.4,216104.25999993458,216122.791,216441.847,,42,French
screen,html.Screen,2_1_1_1_43,2021-04-26T14:42:13.869Z,,,,,,,,,,,,,,,,,54,,,,,,,,,,,,,,345.5729999496252,,response,,,,100,,,,,,,Space,keypress(Space),,,,,,,,-- --- ---- --- ------ ----- ------- ---- -- --- ------- --<br>------- ---------- ------ -- ----- -- ----- -- ---- ------<br>--- ----- --- --- ------ -------- ----- --- ------ ----- --<br>----- ----- ---------- --- --- ------ ------ ---- -- ------<br>credit. --- ------ ----- --- ---- ------- -- ---- --- --<br>------- ------,216787.84999996424,216787.41999994963,216422.286,216423.50499995518,216441.847,216800.876,,43,credit.
screen,html.Screen,2_1_1_1_44,2021-04-26T14:42:14.305Z,,,,,,,,,,,,,,,,,54,,,,,,,,,,,,,,422.7289999483037,,response,,,,100,,,,,,,Space,keypress(Space),,,,,,,,-- --- ---- --- ------ ----- ------- ---- -- --- ------- --<br>------- ---------- ------ -- ----- -- ----- -- ---- ------<br>--- ----- --- --- ------ -------- ----- --- ------ ----- --<br>----- ----- ---------- --- --- ------ ------ ---- -- ------<br>------- The ------ ----- --- ---- ------- -- ---- --- --<br>------- ------,217224.06999999657,217223.6049999483,216774.695,216787.90999995545,216800.876,217243.212,,44,The
screen,html.Screen,2_1_1_1_45,2021-04-26T14:42:14.560Z,,,,,,,,,,,,,,,,,54,,,,,,,,,,,,,,235.14299991197186,,response,,,,100,,,,,,,Space,keypress(Space),,,,,,,,-- --- ---- --- ------ ----- ------- ---- -- --- ------- --<br>------- ---------- ------ -- ----- -- ----- -- ---- ------<br>--- ----- --- --- ------ -------- ----- --- ------ ----- --<br>----- ----- ---------- --- --- ------ ------ ---- -- ------<br>------- --- French ----- --- ---- ------- -- ---- --- --<br>------- ------,217478.7049998995,217478.35499991197,217217.148,217224.12999998778,217243.212,217497.636,,45,French
screen,html.Screen,2_1_1_1_46,2021-04-26T14:42:14.844Z,,,,,,,,,,,,,,,,,54,,,,,,,,,,,,,,264.45900001277914,,response,,,,100,,,,,,,Space,keypress(Space),,,,,,,,-- --- ---- --- ------ ----- ------- ---- -- --- ------- --<br>------- ---------- ------ -- ----- -- ----- -- ---- ------<br>--- ----- --- --- ------ -------- ----- --- ------ ----- --<br>----- ----- ---------- --- --- ------ ------ ---- -- ------<br>------- --- ------ state --- ---- ------- -- ---- --- --<br>------- ------,217762.5199999893,217762.09500001278,217475.552,217478.77499996684,217497.636,217770.033,,46,state
screen,html.Screen,2_1_1_1_47,2021-04-26T14:42:15.219Z,,,,,,,,,,,,,,,,,54,,,,,,,,,,,,,,367.85700001270743,,response,,,,100,,,,,,,Space,keypress(Space),,,,,,,,-- --- ---- --- ------ ----- ------- ---- -- --- ------- --<br>------- ---------- ------ -- ----- -- ----- -- ---- ------<br>--- ----- --- --- ------ -------- ----- --- ------ ----- --<br>----- ----- ---------- --- --- ------ ------ ---- -- ------<br>------- --- ------ ----- was ---- ------- -- ---- --- --<br>------- ------,218138.39999993797,218137.8900000127,217746.537,217762.58999994025,217770.033,218154.084,,47,was
screen,html.Screen,2_1_1_1_48,2021-04-26T14:42:15.561Z,,,,,,,,,,,,,,,,,54,,,,,,,,,,,,,,325.1860000107263,,response,,,,100,,,,,,,Space,keypress(Space),,,,,,,,-- --- ---- --- ------ ----- ------- ---- -- --- ------- --<br>------- ---------- ------ -- ----- -- ----- -- ---- ------<br>--- ----- --- --- ------ -------- ----- --- ------ ----- --<br>----- ----- ---------- --- --- ------ ------ ---- -- ------<br>------- --- ------ ----- --- left ------- -- ---- --- --<br>------- ------,218479.66499999166,218479.27000001073,218136.198,218138.45500000753,218154.084,218487.764,,48,left
screen,html.Screen,2_1_1_1_49,2021-04-26T14:42:15.946Z,,,,,,,,,,,,,,,,,54,,,,,,,,,,,,,,376.38599992121453,,response,,,,100,,,,,,,Space,keypress(Space),,,,,,,,-- --- ---- --- ------ ----- ------- ---- -- --- ------- --<br>------- ---------- ------ -- ----- -- ----- -- ---- ------<br>--- ----- --- --- ------ -------- ----- --- ------ ----- --<br>----- ----- ---------- --- --- ------ ------ ---- -- ------<br>------- --- ------ ----- --- ---- without -- ---- --- --<br>------- ------,218864.6749999607,218864.1499999212,218471.259,218479.73999998067,218487.764,218870.272,,49,without
screen,html.Screen,2_1_1_1_50,2021-04-26T14:42:16.265Z,,,,,,,,,,,,,,,,,54,,,,,,,,,,,,,,312.7429999586893,,response,,,,100,,,,,,,Space,keypress(Space),,,,,,,,-- --- ---- --- ------ ----- ------- ---- -- --- ------- --<br>------- ---------- ------ -- ----- -- ----- -- ---- ------<br>--- ----- --- --- ------ -------- ----- --- ------ ----- --<br>----- ----- ---------- --- --- ------ ------ ---- -- ------<br>------- --- ------ ----- --- ---- ------- an ---- --- --<br>------- ------,219183.5499999579,219183.0149999587,218854.264,218864.7499999497,218870.272,219202.853,,50,an
screen,html.Screen,2_1_1_1_51,2021-04-26T14:42:16.602Z,,,,,,,,,,,,,,,,,54,,,,,,,,,,,,,,317.376999907312,,response,,,,100,,,,,,,Space,keypress(Space),,,,,,,,-- --- ---- --- ------ ----- ------- ---- -- --- ------- --<br>------- ---------- ------ -- ----- -- ----- -- ---- ------<br>--- ----- --- --- ------ -------- ----- --- ------ ----- --<br>----- ----- ---------- --- --- ------ ------ ---- -- ------<br>------- --- ------ ----- --- ---- ------- -- easy --- --<br>------- ------,219520.7549999468,219520.22999990731,219170.461,219183.63999994472,219202.853,219540.407,,51,easy
screen,html.Screen,2_1_1_1_52,2021-04-26T14:42:17.092Z,,,,,,,,,,,,,,,,,54,,,,,,,,,,,,,,470.20799991919193,,response,,,,100,,,,,,,Space,keypress(Space),,,,,,,,-- --- ---- --- ------ ----- ------- ---- -- --- ------- --<br>------- ---------- ------ -- ----- -- ----- -- ---- ------<br>--- ----- --- --- ------ -------- ----- --- ------ ----- --<br>----- ----- ---------- --- --- ------ ------ ---- -- ------<br>------- --- ------ ----- --- ---- ------- -- ---- way --<br>------- ------,220010.9849999426,220010.6149999192,219518.553,219520.82499989774,219540.407,220023.96,,52,way
screen,html.Screen,2_1_1_1_53,2021-04-26T14:42:17.452Z,,,,,,,,,,,,,,,,,54,,,,,,,,,,,,,,346.45999993380974,,response,,,,100,,,,,,,Space,keypress(Space),,,,,,,,-- --- ---- --- ------ ----- ------- ---- -- --- ------- --<br>------- ---------- ------ -- ----- -- ----- -- ---- ------<br>--- ----- --- --- ------ -------- ----- --- ------ ----- --<br>----- ----- ---------- --- --- ------ ------ ---- -- ------<br>------- --- ------ ----- --- ---- ------- -- ---- --- of<br>------- ------,220370.93499989714,220370.4199999338,220005.949,220011.0449999338,220023.96,220375.71,,53,of
screen,html.Screen,2_1_1_1_54,2021-04-26T14:42:17.771Z,,,,,,,,,,,,,,,,,54,,,,,,,,,,,,,,313.6199999646924,,response,,,,100,,,,,,,Space,keypress(Space),,,,,,,,-- --- ---- --- ------ ----- ------- ---- -- --- ------- --<br>------- ---------- ------ -- ----- -- ----- -- ---- ------<br>--- ----- --- --- ------ -------- ----- --- ------ ----- --<br>----- ----- ---------- --- --- ------ ------ ---- -- ------<br>------- --- ------ ----- --- ---- ------- -- ---- --- --<br>raising ------,220690.30499993823,220689.32999996468,220357.237,220370.99500000477,220375.71,220694.492,,54,raising
screen,html.Screen,2_1_1_1_55,2021-04-26T14:42:18.066Z,,,,,,,,,,,,,,,,,54,,,,,,,,,,,,,,289.56799992974265,,response,,,,100,,,,,,,Space,keypress(Space),,,,,,,,-- --- ---- --- ------ ----- ------- ---- -- --- ------- --<br>------- ---------- ------ -- ----- -- ----- -- ---- ------<br>--- ----- --- --- ------ -------- ----- --- ------ ----- --<br>----- ----- ---------- --- --- ------ ------ ---- -- ------<br>------- --- ------ ----- --- ---- ------- -- ---- --- --<br>------- money.,220984.50499994215,220984.05999992974,220675.699,220690.37999992725,220694.492,221003.577,,55,money.
Item 100,flow.Loop,2_1_1_1,2021-04-26T14:42:18.066Z,,,,,,,,,,,,,,,,,,,,,,,,,,,,,,,17054.314999929746,,completion,,,,,C,,,,,,,,,,,silence,,,,,220984.62999996264,220984.05999992974,203913.604,203914.12500001024,203929.745,221003.577,,,
Question 1,html.Screen,2_1_1_2,2021-04-26T14:42:20.485Z,,,,,,,,,,,,,,,,,,,,,,,,,,,,true,TRUE,,2399.6479998999857,,response,,,,100,C,,,,,,TRUE,click #choice-1,,,,silence,,,,,223403.91999995336,223403.22499989998,220978.015,220984.66999991797,221003.577,223420.833,,,
Question 2,html.Screen,2_1_1_3,2021-04-26T14:42:23.077Z,,,,,,,,,,,,,,,,,,,,,,,,,,,,true,FALSE,,2574.496999946976,,response,,,,100,C,,,,,,FALSE,click #choice-2,,,,silence,,,,,225996.21499993373,225995.329999947,223395.399,223404.02499993797,223420.833,226012.87,,,
Item 100,flow.Sequence,2_1_1,2021-04-26T14:42:23.077Z,,,,,,,,,,,,,,,,,,,,,,,,,,,,,,,32061.130999946996,,completion,,,,,,,,,,,,,,,,,,,,,225996.31999991834,225995.329999947,193924.424,193931.67999992147,193934.199,226012.87,,,
End of Practice,html.Page,2_1_2,2021-04-26T14:42:32.909Z,,,,,,,,,,,,,,,,,,,,,,,,,,,,,,,9815.329999989015,,form submission,,,,,,,,,,,,,,,,,,,,,235828.4299999941,235828.199999989,225990.321,225996.36499991175,226012.87,235845.539,,,
Practice,flow.Sequence,2_1,2021-04-26T14:42:32.910Z,,,,,,,,,,,,,,,,,,,,,,,,,,,,,,,79409.87599998902,,completion,,,,,,,,,,,,,,,,,,,,,235828.52999994066,235828.199999989,156400.535,156404.4499999145,156418.324,235845.539,,,
Trap_instruction,html.Page,2_2_0,2021-04-26T14:42:52.914Z,,,,,,,,,,,,,,,,,,,,,,,,,,,,,,,20003.917000000016,,timeout,,,,,,,,,,,,,,,,,,,,,255833.2849999424,255832.656,235827.001,235828.5850000102,235845.539,255849.456,,,
trap_trial,html.Screen,2_2_1,2021-04-26T14:42:56.113Z,,,,,,,,,,,,,,,,,,,,,,,,,,,,true,1,,3181.098999946611,,response,,,,,,,,,,,1,click #choice-1,,,,,,,,,259032.4599999003,259030.55499994662,255832.656,255833.34499993362,255849.456,259047.92,,,
end of trap trial,html.Page,2_2_2,2021-04-26T14:43:06.120Z,,,,,,,,,,,,,,,,,,,,,,,,,,,,,,,10007.399999999994,,timeout,,,,,,,,,,,,,,,,,,,,,269039.27499998827,269038.418,259021.424,259032.81000000425,259047.92,269055.32,,,
Trap 1,flow.Sequence,2_2,2021-04-26T14:43:06.121Z,,,,,,,,,,,,,,,,,,,,,,,,,,,,,,,33192.879000000015,,completion,,,,,,,,,,,,,,,,,,,,,269039.5949999802,269038.418,235827.001,235828.5700000124,235845.539,269055.32,,,
Standby,html.Page,2_3_0,2021-04-26T14:43:14.127Z,,,,,,,,,,,,,,,,,,,,,,,,,,,,,,,8005.9529999999795,,timeout,,,,,,,,,,,,,,,,,,,,,277046.2800000096,277044.938,269038.418,269039.79999991134,269055.32,277061.273,,,
Holding screen,html.Screen,2_3_1_0_0,2021-04-26T14:43:21.127Z,,,,,,,,,,,,,,,,,,,,,,,,,,,,,,,7000.504000000015,,timeout,,,,,,,,,,,,,,,,,,,,,284046.149999951,284045.242,277044.938,277046.7649999773,277061.273,284061.777,,,
screen,html.Screen,2_3_1_0_1_0,2021-04-26T14:43:23.080Z,,,,,,,,,,,,,,,,,48,,,,,,,,,,,,,,1936.5580000111368,,response,,,,10,C,,,,,,Space,keypress(Space),,,,instrumental,,,,As -- --- ------ ------- --------- ----------- --------<br>--------- -------- --- ------- -- ------- ---- -- ------<br>-- --- -------- -------- ---------- ---- ---- ---- ------<br>-- --------- -- ---- -- --- -- --- ------- -- - -----<br>---------- -- -- -- ---- ----- -- ------ -- --- ------<br>-------,285999.2499999935,285998.33500001114,284045.242,284046.43499990925,284061.777,286011.448,,0,As
screen,html.Screen,2_3_1_0_1_1,2021-04-26T14:43:23.411Z,,,,,,,,,,,,,,,,,48,,,,,,,,,,,,,,317.92699997208547,,response,,,,10,C,,,,,,Space,keypress(Space),,,,instrumental,,,,-- in --- ------ ------- --------- ----------- --------<br>--------- -------- --- ------- -- ------- ---- -- ------<br>-- --- -------- -------- ---------- ---- ---- ---- ------<br>-- --------- -- ---- -- --- -- --- ------- -- - -----<br>---------- -- -- -- ---- ----- -- ------ -- --- ------<br>-------,286330.1499999361,286329.37499997206,285995.096,285999.51499991585,286011.448,286341.493,,1,in
screen,html.Screen,2_3_1_0_1_2,2021-04-26T14:43:23.822Z,,,,,,,,,,,,,,,,,48,,,,,,,,,,,,,,398.4320000016596,,response,,,,10,C,,,,,,Space,keypress(Space),,,,instrumental,,,,-- -- the ------ ------- --------- ----------- --------<br>--------- -------- --- ------- -- ------- ---- -- ------<br>-- --- -------- -------- ---------- ---- ---- ---- ------<br>-- --------- -- ---- -- --- -- --- ------- -- - -----<br>---------- -- -- -- ---- ----- -- ------ -- --- ------<br>-------,286740.8149999101,286739.9250000017,286328.061,286330.3549999837,286341.493,286768.525,,2,the
screen,html.Screen,2_3_1_0_1_3,2021-04-26T14:43:24.107Z,,,,,,,,,,,,,,,,,48,,,,,,,,,,,,,,256.61499992513563,,response,,,,10,C,,,,,,Space,keypress(Space),,,,instrumental,,,,-- -- --- United ------- --------- ----------- --------<br>--------- -------- --- ------- -- ------- ---- -- ------<br>-- --- -------- -------- ---------- ---- ---- ---- ------<br>-- --------- -- ---- -- --- -- --- ------- -- - -----<br>---------- -- -- -- ---- ----- -- ------ -- --- ------<br>-------,287025.86499997415,287025.13999992516,286751.609,286741.13999994006,286768.525,287040.436,,3,United
screen,html.Screen,2_3_1_0_1_4,2021-04-26T14:43:24.369Z,,,,,,,,,,,,,,,,,48,,,,,,,,,,,,,,247.3839999686461,,response,,,,10,C,,,,,,Space,keypress(Space),,,,instrumental,,,,"-- -- --- ------ States, --------- ----------- --------<br>--------- -------- --- ------- -- ------- ---- -- ------<br>-- --- -------- -------- ---------- ---- ---- ---- ------<br>-- --------- -- ---- -- --- -- --- ------- -- - -----<br>---------- -- -- -- ---- ----- -- ------ -- --- ------<br>-------",287288.44999999274,287287.81999996863,287018.262,287026.0699999053,287040.436,287326.658,,4,"States,"
screen,html.Screen,2_3_1_0_1_5,2021-04-26T14:43:25.578Z,,,,,,,,,,,,,,,,,48,,,,,,,,,,,,,,1169.4919999044505,,response,,,,10,C,,,,,,Space,keypress(Space),,,,instrumental,,,,-- -- --- ------ ------- Colombian ----------- --------<br>--------- -------- --- ------- -- ------- ---- -- ------<br>-- --- -------- -------- ---------- ---- ---- ---- ------<br>-- --------- -- ---- -- --- -- --- ------- -- - -----<br>---------- -- -- -- ---- ----- -- ------ -- --- ------<br>-------,288496.89999991097,288496.14999990445,287274.052,287288.65000000224,287326.658,288511.817,,5,Colombian
screen,html.Screen,2_3_1_0_1_6,2021-04-26T14:43:29.756Z,,,,,,,,,,,,,,,,,48,,,,,,,,,,,,,,4162.413000004191,,response,,,,10,C,,,,,,Space,keypress(Space),,,,instrumental,,,,-- -- --- ------ ------- --------- legislation --------<br>--------- -------- --- ------- -- ------- ---- -- ------<br>-- --- -------- -------- ---------- ---- ---- ---- ------<br>-- --------- -- ---- -- --- -- --- ------- -- - -----<br>---------- -- -- -- ---- ----- -- ------ -- --- ------<br>-------,292674.98499993235,292674.2300000042,288490.413,288497.1249999944,288511.817,292696.779,,6,legislation
screen,html.Screen,2_3_1_0_1_7,2021-04-26T14:43:30.218Z,,,,,,,,,,,,,,,,,48,,,,,,,,,,,,,,439.6109999996843,,response,,,,10,C,,,,,,Space,keypress(Space),,,,instrumental,,,,-- -- --- ------ ------- --------- ----------- requires<br>--------- -------- --- ------- -- ------- ---- -- ------<br>-- --- -------- -------- ---------- ---- ---- ---- ------<br>-- --------- -- ---- -- --- -- --- ------- -- - -----<br>---------- -- -- -- ---- ----- -- ------ -- --- ------<br>-------,293137.12999993004,293136.38999999966,292661.863,292675.2249998972,292696.779,293166.852,,7,requires
screen,html.Screen,2_3_1_0_1_8,2021-04-26T14:43:30.644Z,,,,,,,,,,,,,,,,,48,,,,,,,,,,,,,,395.3879999992787,,response,,,,10,C,,,,,,Space,keypress(Space),,,,instrumental,,,,-- -- --- ------ ------- --------- ----------- --------<br>travelers -------- --- ------- -- ------- ---- -- ------<br>-- --- -------- -------- ---------- ---- ---- ---- ------<br>-- --------- -- ---- -- --- -- --- ------- -- - -----<br>---------- -- -- -- ---- ----- -- ------ -- --- ------<br>-------,293563.0649999948,293562.2399999993,293127.087,293137.3850000091,293166.852,293596.876,,8,travelers
screen,html.Screen,2_3_1_0_1_9,2021-04-26T14:43:30.969Z,,,,,,,,,,,,,,,,,48,,,,,,,,,,,,,,290.49400001129834,,response,,,,10,C,,,,,,Space,keypress(Space),,,,instrumental,,,,-- -- --- ------ ------- --------- ----------- --------<br>--------- entering --- ------- -- ------- ---- -- ------<br>-- --- -------- -------- ---------- ---- ---- ---- ------<br>-- --------- -- ---- -- --- -- --- ------- -- - -----<br>---------- -- -- -- ---- ----- -- ------ -- --- ------<br>-------,293888.10999994166,293887.3700000113,293555.846,293563.28999996185,293596.876,293926.755,,9,entering
screen,html.Screen,2_3_1_0_1_10,2021-04-26T14:43:31.320Z,,,,,,,,,,,,,,,,,48,,,,,,,,,,,,,,311.01999992865603,,response,,,,10,C,,,,,,Space,keypress(Space),,,,instrumental,,,,-- -- --- ------ ------- --------- ----------- --------<br>--------- -------- the ------- -- ------- ---- -- ------<br>-- --- -------- -------- ---------- ---- ---- ---- ------<br>-- --------- -- ---- -- --- -- --- ------- -- - -----<br>---------- -- -- -- ---- ----- -- ------ -- --- ------<br>-------,294238.55999996886,294237.77499992866,293881.558,293888.35999998264,293926.755,294241.531,,10,the
screen,html.Screen,2_3_1_0_1_11,2021-04-26T14:43:31.664Z,,,,,,,,,,,,,,,,,48,,,,,,,,,,,,,,340.5739999212674,,response,,,,10,C,,,,,,Space,keypress(Space),,,,instrumental,,,,-- -- --- ------ ------- --------- ----------- --------<br>--------- -------- --- country -- ------- ---- -- ------<br>-- --- -------- -------- ---------- ---- ---- ---- ------<br>-- --------- -- ---- -- --- -- --- ------- -- - -----<br>---------- -- -- -- ---- ----- -- ------ -- --- ------<br>-------,294582.764999941,294582.1049999213,294223.531,294238.75999997836,294241.531,294616.622,,11,country
screen,html.Screen,2_3_1_0_1_12,2021-04-26T14:43:31.959Z,,,,,,,,,,,,,,,,,48,,,,,,,,,,,,,,261.18299993826076,,response,,,,10,C,,,,,,Space,keypress(Space),,,,instrumental,,,,-- -- --- ------ ------- --------- ----------- --------<br>--------- -------- --- ------- to ------- ---- -- ------<br>-- --- -------- -------- ---------- ---- ---- ---- ------<br>-- --------- -- ---- -- --- -- --- ------- -- - -----<br>---------- -- -- -- ---- ----- -- ------ -- --- ------<br>-------,294878.3599999733,294877.80499993823,294575.12,294582.9649999505,294616.622,294906.686,,12,to
screen,html.Screen,2_3_1_0_1_13,2021-04-26T14:43:32.341Z,,,,,,,,,,,,,,,,,48,,,,,,,,,,,,,,353.21399994636886,,response,,,,10,C,,,,,,Space,keypress(Space),,,,instrumental,,,,-- -- --- ------ ------- --------- ----------- --------<br>--------- -------- --- ------- -- declare ---- -- ------<br>-- --- -------- -------- ---------- ---- ---- ---- ------<br>-- --------- -- ---- -- --- -- --- ------- -- - -----<br>---------- -- -- -- ---- ----- -- ------ -- --- ------<br>-------,295260.40499994997,295259.89999994636,294867.853,294878.49499995355,294906.686,295264.603,,13,declare
screen,html.Screen,2_3_1_0_1_14,2021-04-26T14:43:32.796Z,,,,,,,,,,,,,,,,,48,,,,,,,,,,,,,,449.8869999257149,,response,,,,10,C,,,,,,Space,keypress(Space),,,,instrumental,,,,-- -- --- ------ ------- --------- ----------- --------<br>--------- -------- --- ------- -- ------- cash -- ------<br>-- --- -------- -------- ---------- ---- ---- ---- ------<br>-- --------- -- ---- -- --- -- --- ------- -- - -----<br>---------- -- -- -- ---- ----- -- ------ -- --- ------<br>-------,295715.31499992125,295714.4899999257,295247.925,295260.54499996826,295264.603,295746.913,,14,cash
screen,html.Screen,2_3_1_0_1_15,2021-04-26T14:43:33.148Z,,,,,,,,,,,,,,,,,48,,,,,,,,,,,,,,319.0619999176706,,response,,,,10,C,,,,,,Space,keypress(Space),,,,instrumental,,,,-- -- --- ------ ------- --------- ----------- --------<br>--------- -------- --- ------- -- ------- ---- in ------<br>-- --- -------- -------- ---------- ---- ---- ---- ------<br>-- --------- -- ---- -- --- -- --- ------- -- - -----<br>---------- -- -- -- ---- ----- -- ------ -- --- ------<br>-------,296066.6750000091,296065.9749999177,295701.475,295715.5400000047,295746.913,296086.51,,15,in
screen,html.Screen,2_3_1_0_1_16,2021-04-26T14:43:33.554Z,,,,,,,,,,,,,,,,,48,,,,,,,,,,,,,,385.7999999828171,,response,,,,10,C,,,,,,Space,keypress(Space),,,,instrumental,,,,-- -- --- ------ ------- --------- ----------- --------<br>--------- -------- --- ------- -- ------- ---- -- excess<br>-- --- -------- -------- ---------- ---- ---- ---- ------<br>-- --------- -- ---- -- --- -- --- ------- -- - -----<br>---------- -- -- -- ---- ----- -- ------ -- --- ------<br>-------,296473.17999997176,296472.3099999828,296050.816,296066.8799999403,296086.51,296506.922,,16,excess
screen,html.Screen,2_3_1_0_1_17,2021-04-26T14:43:33.901Z,,,,,,,,,,,,,,,,,48,,,,,,,,,,,,,,312.53299998980947,,response,,,,10,C,,,,,,Space,keypress(Space),,,,instrumental,,,,-- -- --- ------ ------- --------- ----------- --------<br>--------- -------- --- ------- -- ------- ---- -- ------<br>of --- -------- -------- ---------- ---- ---- ---- ------<br>-- --------- -- ---- -- --- -- --- ------- -- - -----<br>---------- -- -- -- ---- ----- -- ------ -- --- ------<br>-------,296820.1949999202,296819.45499998983,296468.681,296473.4049999388,296506.922,296852.717,,17,of
screen,html.Screen,2_3_1_0_1_18,2021-04-26T14:43:34.178Z,,,,,,,,,,,,,,,,,48,,,,,,,,,,,,,,243.43799991923152,,response,,,,10,C,,,,,,Space,keypress(Space),,,,instrumental,,,,-- -- --- ------ ------- --------- ----------- --------<br>--------- -------- --- ------- -- ------- ---- -- ------<br>-- ten -------- -------- ---------- ---- ---- ---- ------<br>-- --------- -- ---- -- --- -- --- ------- -- - -----<br>---------- -- -- -- ---- ----- -- ------ -- --- ------<br>-------,297097.0199999865,297096.15499991924,296808.319,296820.4249999253,296852.717,297116.808,,18,ten
screen,html.Screen,2_3_1_0_1_19,2021-04-26T14:43:37.028Z,,,,,,,,,,,,,,,,,48,,,,,,,,,,,,,,2828.951999915007,,response,,,,10,C,,,,,,Space,keypress(Space),,,,instrumental,,,,-- -- --- ------ ------- --------- ----------- --------<br>--------- -------- --- ------- -- ------- ---- -- ------<br>-- --- thousand -------- ---------- ---- ---- ---- ------<br>-- --------- -- ---- -- --- -- --- ------- -- - -----<br>---------- -- -- -- ---- ----- -- ------ -- --- ------<br>-------,299946.47999992594,299945.759999915,297088.706,297097.25999995135,297116.808,299966.745,,19,thousand
screen,html.Screen,2_3_1_0_1_20,2021-04-26T14:43:37.679Z,,,,,,,,,,,,,,,,,48,,,,,,,,,,,,,,630.3749999330612,,response,,,,10,C,,,,,,Space,keypress(Space),,,,instrumental,,,,-- -- --- ------ ------- --------- ----------- --------<br>--------- -------- --- ------- -- ------- ---- -- ------<br>-- --- -------- dollars. ---------- ---- ---- ---- ------<br>-- --------- -- ---- -- --- -- --- ------- -- - -----<br>---------- -- -- -- ---- ----- -- ------ -- --- ------<br>-------,300597.82999998424,300597.11999993306,299932.22,299946.67499989737,299966.745,300636.806,,20,dollars.
screen,html.Screen,2_3_1_0_1_21,2021-04-26T14:43:38.155Z,,,,,,,,,,,,,,,,,48,,,,,,,,,,,,,,436.6539999850793,,response,,,,10,C,,,,,,Space,keypress(Space),,,,instrumental,,,,-- -- --- ------ ------- --------- ----------- --------<br>--------- -------- --- ------- -- ------- ---- -- ------<br>-- --- -------- -------- Concealing ---- ---- ---- ------<br>-- --------- -- ---- -- --- -- --- ------- -- - -----<br>---------- -- -- -- ---- ----- -- ------ -- --- ------<br>-------,301074.2399999872,301073.45999998506,300598.434,300598.0349999154,300636.806,301106.607,,21,Concealing
screen,html.Screen,2_3_1_0_1_22,2021-04-26T14:43:38.500Z,,,,,,,,,,,,,,,,,48,,,,,,,,,,,,,,312.01300001126947,,response,,,,10,C,,,,,,Space,keypress(Space),,,,instrumental,,,,-- -- --- ------ ------- --------- ----------- --------<br>--------- -------- --- ------- -- ------- ---- -- ------<br>-- --- -------- -------- ---------- more ---- ---- ------<br>-- --------- -- ---- -- --- -- --- ------- -- - -----<br>---------- -- -- -- ---- ----- -- ------ -- --- ------<br>-------,301419.4450000068,301418.6200000113,301066.485,301074.44499991834,301106.607,301456.736,,22,more
screen,html.Screen,2_3_1_0_1_23,2021-04-26T14:43:38.824Z,,,,,,,,,,,,,,,,,48,,,,,,,,,,,,,,285.76899997290457,,response,,,,10,C,,,,,,Space,keypress(Space),,,,instrumental,,,,-- -- --- ------ ------- --------- ----------- --------<br>--------- -------- --- ------- -- ------- ---- -- ------<br>-- --- -------- -------- ---------- ---- than ---- ------<br>-- --------- -- ---- -- --- -- --- ------- -- - -----<br>---------- -- -- -- ---- ----- -- ------ -- --- ------<br>-------,301743.2349999435,301742.5049999729,301409.37,301419.6949999314,301456.736,301754.882,,23,than
screen,html.Screen,2_3_1_0_1_24,2021-04-26T14:43:39.218Z,,,,,,,,,,,,,,,,,48,,,,,,,,,,,,,,381.6429999799002,,response,,,,10,C,,,,,,Space,keypress(Space),,,,instrumental,,,,-- -- --- ------ ------- --------- ----------- --------<br>--------- -------- --- ------- -- ------- ---- -- ------<br>-- --- -------- -------- ---------- ---- ---- that ------<br>-- --------- -- ---- -- --- -- --- ------- -- - -----<br>---------- -- -- -- ---- ----- -- ------ -- --- ------<br>-------,302137.0899999747,302136.5249999799,301738.379,301743.45999991056,301754.882,302141.579,,24,that
screen,html.Screen,2_3_1_0_1_25,2021-04-26T14:43:39.635Z,,,,,,,,,,,,,,,,,48,,,,,,,,,,,,,,411.2859999759821,,response,,,,10,C,,,,,,Space,keypress(Space),,,,instrumental,,,,-- -- --- ------ ------- --------- ----------- --------<br>--------- -------- --- ------- -- ------- ---- -- ------<br>-- --- -------- -------- ---------- ---- ---- ---- amount<br>-- --------- -- ---- -- --- -- --- ------- -- - -----<br>---------- -- -- -- ---- ----- -- ------ -- --- ------<br>-------,302553.7749999203,302552.864999976,302121.539,302137.26999994833,302141.579,302571.623,,25,amount
screen,html.Screen,2_3_1_0_1_26,2021-04-26T14:43:40.256Z,,,,,,,,,,,,,,,,,48,,,,,,,,,,,,,,602.6919999528909,,response,,,,10,C,,,,,,Space,keypress(Space),,,,instrumental,,,,-- -- --- ------ ------- --------- ----------- --------<br>--------- -------- --- ------- -- ------- ---- -- ------<br>-- --- -------- -------- ---------- ---- ---- ---- ------<br>to --------- -- ---- -- --- -- --- ------- -- - -----<br>---------- -- -- -- ---- ----- -- ------ -- --- ------<br>-------,303175.07499991916,303174.3149999529,302541.78,302553.9749999298,302571.623,303191.599,,26,to
screen,html.Screen,2_3_1_0_1_27,2021-04-26T14:43:40.591Z,,,,,,,,,,,,,,,,,48,,,,,,,,,,,,,,317.61099993105745,,response,,,,10,C,,,,,,Space,keypress(Space),,,,instrumental,,,,-- -- --- ------ ------- --------- ----------- --------<br>--------- -------- --- ------- -- ------- ---- -- ------<br>-- --- -------- -------- ---------- ---- ---- ---- ------<br>-- transport -- ---- -- --- -- --- ------- -- - -----<br>---------- -- -- -- ---- ----- -- ------ -- --- ------<br>-------,303509.96499997564,303509.20999993104,303171.562,303175.27999996673,303191.599,303546.82,,27,transport
screen,html.Screen,2_3_1_0_1_28,2021-04-26T14:43:40.903Z,,,,,,,,,,,,,,,,,48,,,,,,,,,,,,,,274.4649999545072,,response,,,,10,C,,,,,,Space,keypress(Space),,,,instrumental,,,,-- -- --- ------ ------- --------- ----------- --------<br>--------- -------- --- ------- -- ------- ---- -- ------<br>-- --- -------- -------- ---------- ---- ---- ---- ------<br>-- --------- it ---- -- --- -- --- ------- -- - -----<br>---------- -- -- -- ---- ----- -- ------ -- --- ------<br>-------,303822.13999994565,303821.2849999545,303508.307,303510.1849999046,303546.82,303852.277,,28,it
screen,html.Screen,2_3_1_0_1_29,2021-04-26T14:43:41.214Z,,,,,,,,,,,,,,,,,48,,,,,,,,,,,,,,279.8879999590572,,response,,,,10,C,,,,,,Space,keypress(Space),,,,instrumental,,,,-- -- --- ------ ------- --------- ----------- --------<br>--------- -------- --- ------- -- ------- ---- -- ------<br>-- --- -------- -------- ---------- ---- ---- ---- ------<br>-- --------- -- into -- --- -- --- ------- -- - -----<br>---------- -- -- -- ---- ----- -- ------ -- --- ------<br>-------,304132.9249999253,304132.16499995906,303812.115,303822.359999991,303852.277,304166.944,,29,into
screen,html.Screen,2_3_1_0_1_30,2021-04-26T14:43:41.586Z,,,,,,,,,,,,,,,,,48,,,,,,,,,,,,,,337.06099999521393,,response,,,,10,C,,,,,,Space,keypress(Space),,,,instrumental,,,,-- -- --- ------ ------- --------- ----------- --------<br>--------- -------- --- ------- -- ------- ---- -- ------<br>-- --- -------- -------- ---------- ---- ---- ---- ------<br>-- --------- -- ---- or --- -- --- ------- -- - -----<br>---------- -- -- -- ---- ----- -- ------ -- --- ------<br>-------,304504.82999999076,304504.00499999523,304124.041,304133.1249999348,304166.944,304526.796,,30,or
screen,html.Screen,2_3_1_0_1_31,2021-04-26T14:43:41.943Z,,,,,,,,,,,,,,,,,48,,,,,,,,,,,,,,334.4140000027837,,response,,,,10,C,,,,,,Space,keypress(Space),,,,instrumental,,,,-- -- --- ------ ------- --------- ----------- --------<br>--------- -------- --- ------- -- ------- ---- -- ------<br>-- --- -------- -------- ---------- ---- ---- ---- ------<br>-- --------- -- ---- -- out -- --- ------- -- - -----<br>---------- -- -- -- ---- ----- -- ------ -- --- ------<br>-------,304861.89499998,304861.21000000276,304501.301,304505.0549999578,304526.796,304893.56,,31,out
screen,html.Screen,2_3_1_0_1_32,2021-04-26T14:43:42.206Z,,,,,,,,,,,,,,,,,48,,,,,,,,,,,,,,230.53499997738982,,response,,,,10,C,,,,,,Space,keypress(Space),,,,instrumental,,,,-- -- --- ------ ------- --------- ----------- --------<br>--------- -------- --- ------- -- ------- ---- -- ------<br>-- --- -------- -------- ---------- ---- ---- ---- ------<br>-- --------- -- ---- -- --- of --- ------- -- - -----<br>---------- -- -- -- ---- ----- -- ------ -- --- ------<br>-------,305124.87999990117,305124.0949999774,304856.965,304862.08499991335,304893.56,305148.047,,32,of
screen,html.Screen,2_3_1_0_1_33,2021-04-26T14:43:42.452Z,,,,,,,,,,,,,,,,,48,,,,,,,,,,,,,,222.60299993888475,,response,,,,10,C,,,,,,Space,keypress(Space),,,,instrumental,,,,-- -- --- ------ ------- --------- ----------- --------<br>--------- -------- --- ------- -- ------- ---- -- ------<br>-- --- -------- -------- ---------- ---- ---- ---- ------<br>-- --------- -- ---- -- --- -- the ------- -- - -----<br>---------- -- -- -- ---- ----- -- ------ -- --- ------<br>-------,305371.3849999476,305370.6499999389,305113.495,305125.07999991067,305148.047,305384.803,,33,the
screen,html.Screen,2_3_1_0_1_34,2021-04-26T14:43:42.649Z,,,,,,,,,,,,,,,,,48,,,,,,,,,,,,,,181.91700000251876,,response,,,,10,C,,,,,,Space,keypress(Space),,,,instrumental,,,,-- -- --- ------ ------- --------- ----------- --------<br>--------- -------- --- ------- -- ------- ---- -- ------<br>-- --- -------- -------- ---------- ---- ---- ---- ------<br>-- --------- -- ---- -- --- -- --- country -- - -----<br>---------- -- -- -- ---- ----- -- ------ -- --- ------<br>-------,305567.5949999131,305566.72000000253,305360.06,305371.5899999952,305384.803,305606.88,,34,country
screen,html.Screen,2_3_1_0_1_35,2021-04-26T14:43:42.955Z,,,,,,,,,,,,,,,,,48,,,,,,,,,,,,,,265.84499990649056,,response,,,,10,C,,,,,,Space,keypress(Space),,,,instrumental,,,,-- -- --- ------ ------- --------- ----------- --------<br>--------- -------- --- ------- -- ------- ---- -- ------<br>-- --- -------- -------- ---------- ---- ---- ---- ------<br>-- --------- -- ---- -- --- -- --- ------- is - -----<br>---------- -- -- -- ---- ----- -- ------ -- --- ------<br>-------,305873.54499998037,305872.7249999065,305568.033,305567.82499991823,305606.88,305896.653,,35,is
screen,html.Screen,2_3_1_0_1_36,2021-04-26T14:43:43.199Z,,,,,,,,,,,,,,,,,48,,,,,,,,,,,,,,220.37699996487936,,response,,,,10,C,,,,,,Space,keypress(Space),,,,instrumental,,,,-- -- --- ------ ------- --------- ----------- --------<br>--------- -------- --- ------- -- ------- ---- -- ------<br>-- --- -------- -------- ---------- ---- ---- ---- ------<br>-- --------- -- ---- -- --- -- --- ------- -- a -----<br>---------- -- -- -- ---- ----- -- ------ -- --- ------<br>-------,306117.8549999604,306117.02999996487,305869.708,305873.7849999452,305896.653,306131.764,,36,a
screen,html.Screen,2_3_1_0_1_37,2021-04-26T14:43:43.573Z,,,,,,,,,,,,,,,,,48,,,,,,,,,,,,,,360.09099991287803,,response,,,,10,C,,,,,,Space,keypress(Space),,,,instrumental,,,,-- -- --- ------ ------- --------- ----------- --------<br>--------- -------- --- ------- -- ------- ---- -- ------<br>-- --- -------- -------- ---------- ---- ---- ---- ------<br>-- --------- -- ---- -- --- -- --- ------- -- - crime<br>---------- -- -- -- ---- ----- -- ------ -- --- ------<br>-------,306492.4049999099,306491.8549999129,306108.924,306118.060000008,306131.764,306507.668,,37,crime
screen,html.Screen,2_3_1_0_1_38,2021-04-26T14:43:43.952Z,,,,,,,,,,,,,,,,,48,,,,,,,,,,,,,,362.4619999374845,,response,,,,10,C,,,,,,Space,keypress(Space),,,,instrumental,,,,-- -- --- ------ ------- --------- ----------- --------<br>--------- -------- --- ------- -- ------- ---- -- ------<br>-- --- -------- -------- ---------- ---- ---- ---- ------<br>-- --------- -- ---- -- --- -- --- ------- -- - -----<br>punishable -- -- -- ---- ----- -- ------ -- --- ------<br>-------,306870.8399999887,306870.1299999375,306481.741,306492.559999926,306507.668,306878.604,,38,punishable
screen,html.Screen,2_3_1_0_1_39,2021-04-26T14:43:44.234Z,,,,,,,,,,,,,,,,,48,,,,,,,,,,,,,,273.44599991693394,,response,,,,10,C,,,,,,Space,keypress(Space),,,,instrumental,,,,-- -- --- ------ ------- --------- ----------- --------<br>--------- -------- --- ------- -- ------- ---- -- ------<br>-- --- -------- -------- ---------- ---- ---- ---- ------<br>-- --------- -- ---- -- --- -- --- ------- -- - -----<br>---------- by -- -- ---- ----- -- ------ -- --- ------<br>-------,307152.7950000018,307152.0499999169,306857.606,306871.0399999982,306878.604,307186.871,,39,by
screen,html.Screen,2_3_1_0_1_40,2021-04-26T14:43:44.499Z,,,,,,,,,,,,,,,,,48,,,,,,,,,,,,,,230.15399997337954,,response,,,,10,C,,,,,,Space,keypress(Space),,,,instrumental,,,,-- -- --- ------ ------- --------- ----------- --------<br>--------- -------- --- ------- -- ------- ---- -- ------<br>-- --- -------- -------- ---------- ---- ---- ---- ------<br>-- --------- -- ---- -- --- -- --- ------- -- - -----<br>---------- -- up -- ---- ----- -- ------ -- --- ------<br>-------,307417.82500001136,307417.02499997336,307145.171,307152.99999993294,307186.871,307456.612,,40,up
