sender,sender_type,sender_id,timestamp,meta,,Blues,Classical,Country,Dance,Electronic,Folk,Gospel,Hip-Hop,Jazz,Latin,Musical/Film,New-age,Pop,Prolific_id,Provo_ID,R&B,Rap,Reggae,Religious,Rock,Soul,Swing,Traditional,age,artist_name,correct,correctResponse,distraction,duration,education,ended_on,familiarity,gender,headphone_check_performance,item,list,music_frequency,offensiveness,pleasantness,position_correct,preference,response,response_action,snippet_file,song_name,song_rating,sound,stimulus_1,stimulus_2,stimulus_3,text,time_commit,time_end,time_render,time_run,time_show,time_switch,url,word,word_ID
Prolific ID,html.Form,0,2021-04-24T14:51:29.402Z,"{""labjs_version"":""20.2.2"",""labjs_build"":{""flavor"":""production"",""commit"":""a25486e0c714a0ae2ce03ff94b7bb6896854dcfa""},""location"":""https://run.pavlovia.org/mvasilev/prolific_music_c/"",""userAgent"":""Mozilla/5.0 (Windows NT 10.0; Win64; x64) AppleWebKit/537.36 (KHTML, like Gecko) Chrome/90.0.4430.85 Safari/537.36"",""platform"":""Win32"",""language"":""en-GB"",""locale"":""en-GB"",""timeZone"":""Europe/London"",""timezoneOffset"":-60,""screen_width"":1500,""screen_height"":1000,""scroll_width"":1500,""scroll_height"":810,""window_innerWidth"":1500,""window_innerHeight"":858,""devicePixelRatio"":2}",,,,,,,,,,,,,,,5dc6d78cac77c74d18692044,,,,,,,,,,,,,,,9751.65399997098,,form submission,,,,,,,,,,,,,,,,,,,,,18537.51499997452,18536.21499997098,8746.76,8761.584999971092,8784.561,18571.487,{},,
Introduction,html.Screen,1_0,2021-04-24T14:51:35.804Z,,,,,,,,,,,,,,,,,,,,,,,,,,,,,,,6360.228000013354,,response,,,,,,,,,,,continue,click button,,,,,,,,,24939.1900000046,24931.715000013355,18527.42,18538.650000002235,18571.487,24953.895,,,
Volume calibration,html.Screen,1_1,2021-04-24T14:52:07.535Z,,,,,,,,,,,,,,,,,,,,,,,,,,,,,,,31712.54999998074,,response,,,,,,,,,,,continue,click button,,,,,,,,,56670.264999964274,56666.44499998074,24919.328,24939.71499998588,24953.895,56675.908,,,
Task instructions,html.Screen,1_2,2021-04-24T14:52:34.317Z,,,,,,,,,,,,,,,,,,,,,,,,,,,,,,,26774.18199999845,,response,,,,,,,,,,,continue,click button,,,,,,,,,83451.18500001263,83450.08999999845,56659.301,56670.41999998037,56675.908,83462.979,,,
Sounds,html.Screen,1_3_0_0,2021-04-24T14:52:38.565Z,,,,,,,,,,,,,,,,,,,,,,,,,,,,,,,4249.016999999993,,timeout,,,,,,,,,2,,,,,,,,I,S,O,,87699.23500000732,87695.361,83446.32,83451.59000001149,83462.979,87711.996,,,
Judgement,html.Screen,1_3_0_1,2021-04-24T14:52:40.092Z,,,,,,,,,,,,,,,,,,,,,,,,,,,,true,2,,1513.4789999847271,,response,,,,,,,,,2,,2,click #choice-2,,,,,I,S,O,,89226.60499997437,89225.47499998473,87695.361,87699.48000001023,87711.996,89229.885,,,
Trial,flow.Sequence,1_3_0,2021-04-24T14:52:40.093Z,,,,,,,,,,,,,,,,,,,,,,,,,,,,,,,5762.49599998472,,completion,,,,,,,,,2,,,,,,,,I,S,O,,89227.03999996884,89225.47499998473,83446.32,83451.49499998661,83462.979,89229.885,,,
Sounds,html.Screen,1_3_1_0,2021-04-24T14:52:44.326Z,,,,,,,,,,,,,,,,,,,,,,,,,,,,,,,4246.335000000006,,timeout,,,,,,,,,1,,,,,,,,S,O,I,,93460.0849999697,93459.538,89224.575,89227.2299999604,89229.885,93476.22,,,
Judgement,html.Screen,1_3_1_1,2021-04-24T14:52:45.374Z,,,,,,,,,,,,,,,,,,,,,,,,,,,,true,1,,1031.0900000154215,,response,,,,,,,,,1,,1,click #choice-1,,,,,S,O,I,,94508.48999997834,94507.31000001542,93459.538,93460.20999999018,93476.22,94512.642,,,
Trial,flow.Sequence,1_3_1,2021-04-24T14:52:45.374Z,,,,,,,,,,,,,,,,,,,,,,,,,,,,,,,5277.425000015428,,completion,,,,,,,,,1,,,,,,,,S,O,I,,94508.81500000833,94507.31000001542,89224.575,89227.17500000726,89229.885,94512.642,,,
Sounds,html.Screen,1_3_2_0,2021-04-24T14:52:49.614Z,,,,,,,,,,,,,,,,,,,,,,,,,,,,,,,4251.532999999996,,timeout,,,,,,,,,3,,,,,,,,O,I,S,,98748.0949999881,98747.481,94498.437,94509.0499999933,94512.642,98764.175,,,
Judgement,html.Screen,1_3_2_1,2021-04-24T14:52:50.546Z,,,,,,,,,,,,,,,,,,,,,,,,,,,,true,3,,915.0299999930867,,response,,,,,,,,,3,,3,click #choice-3,,,,,O,I,S,,99680.01000001095,99679.20499999309,98747.481,98748.22499998845,98764.175,99680.994,,,
Trial,flow.Sequence,1_3_2,2021-04-24T14:52:50.546Z,,,,,,,,,,,,,,,,,,,,,,,,,,,,,,,5166.5629999930825,,completion,,,,,,,,,3,,,,,,,,O,I,S,,99680.22499996005,99679.20499999309,94498.437,94508.96499998635,94512.642,99680.994,,,
Sounds,html.Screen,1_3_3_0,2021-04-24T14:52:54.778Z,,,,,,,,,,,,,,,,,,,,,,,,,,,,,,,4246.759999999995,,timeout,,,,,,,,,3,,,,,,,,I,O,S,,103912.164999987,103911.09,99664.373,99680.35999999847,99680.994,103927.754,,,
Judgement,html.Screen,1_3_3_1,2021-04-24T14:52:55.507Z,,,,,,,,,,,,,,,,,,,,,,,,,,,,true,3,,712.1559999689489,,response,,,,,,,,,3,,3,click #choice-3,,,,,I,O,S,,104641.65000000503,104639.90999996895,103911.09,103912.39999997197,103927.754,104645.245,,,
Trial,flow.Sequence,1_3_3,2021-04-24T14:52:55.508Z,,,,,,,,,,,,,,,,,,,,,,,,,,,,,,,4958.915999968944,,completion,,,,,,,,,3,,,,,,,,I,O,S,,104642.11000001524,104639.90999996895,99664.373,99680.309999967,99680.994,104645.245,,,
Sounds,html.Screen,1_3_4_0,2021-04-24T14:52:59.741Z,,,,,,,,,,,,,,,,,,,,,,,,,,,,,,,4246.027000000002,,timeout,,,,,,,,,2,,,,,,,,O,S,I,,108875.97499997355,108874.62,104630.119,104642.41999998922,104645.245,108891.272,,,
Judgement,html.Screen,1_3_4_1,2021-04-24T14:53:00.559Z,,,,,,,,,,,,,,,,,,,,,,,,,,,,true,2,,800.1629999860888,,response,,,,,,,,,2,,2,click #choice-2,,,,,O,S,I,,109693.70499998331,109691.43499998609,108874.62,108876.34999997681,108891.272,109696.769,,,
Trial,flow.Sequence,1_3_4,2021-04-24T14:53:00.560Z,,,,,,,,,,,,,,,,,,,,,,,,,,,,,,,5046.189999986091,,completion,,,,,,,,,2,,,,,,,,O,S,I,,109694.14500001585,109691.43499998609,104630.119,104642.33499998227,104645.245,109696.769,,,
Sounds,html.Screen,1_3_5_0,2021-04-24T14:53:04.794Z,,,,,,,,,,,,,,,,,,,,,,,,,,,,,,,4247.682000000001,,timeout,,,,,,,,,1,,,,,,,,S,I,O,,113928.29999997048,113927.816,109680.089,109694.42999997409,109696.769,113944.451,,,
Judgement,html.Screen,1_3_5_1,2021-04-24T14:53:05.808Z,,,,,,,,,,,,,,,,,,,,,,,,,,,,true,1,,997.4990000076359,,response,,,,,,,,,1,,1,click #choice-1,,,,,S,I,O,,114942.85499997204,114941.95000000764,113927.816,113928.46500000451,113944.451,114955.334,,,
Trial,flow.Sequence,1_3_5,2021-04-24T14:53:05.809Z,,,,,,,,,,,,,,,,,,,,,,,,,,,,,,,5245.181000007637,,completion,,,,,,,,,1,,,,,,,,S,I,O,,114943.12999997055,114941.95000000764,109680.089,109694.35499998508,109696.769,114955.334,,,
Task,flow.Loop,1_3,2021-04-24T14:53:05.814Z,,,,,,,,,,,,,,,,,,,,,,,,,,,,,,,31478.97100000763,,completion,,,1,,,,,,,,,,,,,,,,,,114948.02000001073,114941.95000000764,83446.32,83451.4049999998,83462.979,114955.334,,,
Trap,html.Screen,1_4,2021-04-24T14:53:05.815Z,,,,,,,,,,,,,,,,,,,,,,,,,,,,,,,NaN,,skipped,,,,,,,,,,,,,,,,,,,,,114949.06000001356,114941.95000000764,,114948.94500001101,,114955.334,,,
Thanks,html.Screen,1_5,2021-04-24T14:53:12.461Z,,,,,,,,,,,,,,,,,,,,,,,,,,,,,,,6637.9810000055295,,response,,,,,,,,,,,continue,click button,,,,,,,,,121595.09000001708,121593.31500000553,114933.368,114949.15000000037,114955.334,128147.703,,,
Headphone screening,flow.Sequence,1,2021-04-24T14:53:12.461Z,,,,,,,,,,,,,,,,,,,,,,,,,,,,,,,103021.82800000554,,completion,,,,,,,,,,,,,,,,,,,,,121595.60000000056,121593.31500000553,18527.42,18538.47999998834,18571.487,128147.703,,,
Instructions,html.Page,2_0,2021-04-24T14:53:41.182Z,,,,,,,,,,,,,,,,,,,,,,,,,,,,,,,22169.24199996957,,form submission,,,,,,,,,,,,,,,,,,,,,150317.54499999806,150316.94499996956,128131.163,128146.23999997275,128147.703,150329.958,,,
Holding screen,html.Screen,2_1_0_0,2021-04-24T14:53:51.183Z,,,,,,,,,,,,,,,,,,,,,,,,,,,,,,,10020.023999999976,,timeout,,,,,,,,,,,,,,,,,,,,,160318.29999998445,160316.972,150313.557,150318.06999997934,150329.958,160349.982,,,
screen,html.Screen,2_1_0_1_0,2021-04-24T14:53:52.126Z,,,,,,,,,,,,,,,,,53,,,,,,,,,,,,,,904.9179999999178,,response,,,,99,,,,,,,Space,keypress(Space),,,,,,,,When -- ----- -- ------ - ------- --- ----------<br>------------- ------ ------ ---- ---- ------- ----- -- ----<br>-------- ------- -- ---------- --- - --- ----- ----- ----<br>---- --- --- ----- --- ---- ---- ------- ----- ---- -------<br>--- --- -- ----- -- --- ---- -- --- ---- -- ------ ------<br>--- ----- -- ----,161261.41999999527,161254.8999999999,160316.972,160318.80999996793,160349.982,161261.64,,0,When
screen,html.Screen,2_1_0_1_1,2021-04-24T14:53:52.531Z,,,,,,,,,,,,,,,,,53,,,,,,,,,,,,,,403.5149999951245,,response,,,,99,,,,,,,Space,keypress(Space),,,,,,,,---- it ----- -- ------ - ------- --- ----------<br>------------- ------ ------ ---- ---- ------- ----- -- ----<br>-------- ------- -- ---------- --- - --- ----- ----- ----<br>---- --- --- ----- --- ---- ---- ------- ----- ---- -------<br>--- --- -- ----- -- --- ---- -- --- ---- -- ------ ------<br>--- ----- -- ----,161666.32499999832,161665.15499999514,161252.47,161261.82000001427,161261.64,161673.194,,1,it
screen,html.Screen,2_1_0_1_2,2021-04-24T14:53:52.798Z,,,,,,,,,,,,,,,,,53,,,,,,,,,,,,,,259.1160000037926,,response,,,,99,,,,,,,Space,keypress(Space),,,,,,,,---- -- comes -- ------ - ------- --- ----------<br>------------- ------ ------ ---- ---- ------- ----- -- ----<br>-------- ------- -- ---------- --- - --- ----- ----- ----<br>---- --- --- ----- --- ---- ---- ------- ----- ---- -------<br>--- --- -- ----- -- --- ---- -- --- ---- -- ------ ------<br>--- ----- -- ----,161933.49999998463,161932.31000000378,161662.052,161666.65500000818,161673.194,161940.269,,2,comes
screen,html.Screen,2_1_0_1_3,2021-04-24T14:53:53.178Z,,,,,,,,,,,,,,,,,53,,,,,,,,,,,,,,372.0860000018438,,response,,,,99,,,,,,,Space,keypress(Space),,,,,,,,---- -- ----- to ------ - ------- --- ----------<br>------------- ------ ------ ---- ---- ------- ----- -- ----<br>-------- ------- -- ---------- --- - --- ----- ----- ----<br>---- --- --- ----- --- ---- ---- ------- ----- ---- -------<br>--- --- -- ----- -- --- ---- -- --- ---- -- ------ ------<br>--- ----- -- ----,162313.06499999482,162312.35500000184,161923.589,161933.81000001682,161940.269,162319.386,,3,to
screen,html.Screen,2_1_0_1_4,2021-04-24T14:53:53.440Z,,,,,,,,,,,,,,,,,53,,,,,,,,,,,,,,255.84899999661138,,response,,,,99,,,,,,,Space,keypress(Space),,,,,,,,---- -- ----- -- having - ------- --- ----------<br>------------- ------ ------ ---- ---- ------- ----- -- ----<br>-------- ------- -- ---------- --- - --- ----- ----- ----<br>---- --- --- ----- --- ---- ---- ------- ----- ---- -------<br>--- --- -- ----- -- --- ---- -- --- ---- -- ------ ------<br>--- ----- -- ----,162575.7449999801,162575.2349999966,162307.115,162313.25499998638,162319.386,162581.907,,4,having
screen,html.Screen,2_1_0_1_5,2021-04-24T14:53:53.716Z,,,,,,,,,,,,,,,,,53,,,,,,,,,,,,,,268.47299995983485,,response,,,,99,,,,,,,Space,keypress(Space),,,,,,,,---- -- ----- -- ------ a ------- --- ----------<br>------------- ------ ------ ---- ---- ------- ----- -- ----<br>-------- ------- -- ---------- --- - --- ----- ----- ----<br>---- --- --- ----- --- ---- ---- ------- ----- ---- -------<br>--- --- -- ----- -- --- ---- -- --- ---- -- ------ ------<br>--- ----- -- ----,162851.48499999195,162850.37999995984,162569.451,162575.85999998264,162581.907,162865.676,,5,a
screen,html.Screen,2_1_0_1_6,2021-04-24T14:53:54.023Z,,,,,,,,,,,,,,,,,53,,,,,,,,,,,,,,291.6239999625541,,response,,,,99,,,,,,,Space,keypress(Space),,,,,,,,---- -- ----- -- ------ - lasting --- ----------<br>------------- ------ ------ ---- ---- ------- ----- -- ----<br>-------- ------- -- ---------- --- - --- ----- ----- ----<br>---- --- --- ----- --- ---- ---- ------- ----- ---- -------<br>--- --- -- ----- -- --- ---- -- --- ---- -- ------ ------<br>--- ----- -- ----,163158.45499996794,163157.29999996256,162848.881,162851.79499996593,162865.676,163170.888,,6,lasting
screen,html.Screen,2_1_0_1_7,2021-04-24T14:53:54.330Z,,,,,,,,,,,,,,,,,53,,,,,,,,,,,,,,293.35699998101336,,response,,,,99,,,,,,,Space,keypress(Space),,,,,,,,---- -- ----- -- ------ - ------- and ----------<br>------------- ------ ------ ---- ---- ------- ----- -- ----<br>-------- ------- -- ---------- --- - --- ----- ----- ----<br>---- --- --- ----- --- ---- ---- ------- ----- ---- -------<br>--- --- -- ----- -- --- ---- -- --- ---- -- ------ ------<br>--- ----- -- ----,163465.3849999886,163464.24499998102,163149.104,163158.76999998,163170.888,163472.149,,7,and
screen,html.Screen,2_1_0_1_8,2021-04-24T14:53:54.787Z,,,,,,,,,,,,,,,,,53,,,,,,,,,,,,,,449.20099996050703,,response,,,,99,,,,,,,Space,keypress(Space),,,,,,,,---- -- ----- -- ------ - ------- --- fulfilling<br>------------- ------ ------ ---- ---- ------- ----- -- ----<br>-------- ------- -- ---------- --- - --- ----- ----- ----<br>---- --- --- ----- --- ---- ---- ------- ----- ---- -------<br>--- --- -- ----- -- --- ---- -- --- ---- -- ------ ------<br>--- ----- -- ----,163922.6899999776,163921.3499999605,163454.439,163465.71499999845,163472.149,163929.486,,8,fulfilling
screen,html.Screen,2_1_0_1_9,2021-04-24T14:53:55.064Z,,,,,,,,,,,,,,,,,53,,,,,,,,,,,,,,268.8690000004426,,response,,,,99,,,,,,,Space,keypress(Space),,,,,,,,"---- -- ----- -- ------ - ------- --- ----------<br>relationship, ------ ------ ---- ---- ------- ----- -- ----<br>-------- ------- -- ---------- --- - --- ----- ----- ----<br>---- --- --- ----- --- ---- ---- ------- ----- ---- -------<br>--- --- -- ----- -- --- ---- -- --- ---- -- ------ ------<br>--- ----- -- ----",164199.52500000363,164198.35500000045,163922.587,163923.03000000538,163929.486,164206.397,,9,"relationship,"
screen,html.Screen,2_1_0_1_10,2021-04-24T14:53:55.356Z,,,,,,,,,,,,,,,,,53,,,,,,,,,,,,,,284.0180000074906,,response,,,,99,,,,,,,Space,keypress(Space),,,,,,,,---- -- ----- -- ------ - ------- --- ----------<br>------------- common ------ ---- ---- ------- ----- -- ----<br>-------- ------- -- ---------- --- - --- ----- ----- ----<br>---- --- --- ----- --- ---- ---- ------- ----- ---- -------<br>--- --- -- ----- -- --- ---- -- --- ---- -- ------ ------<br>--- ----- -- ----,164491.08499998692,164490.4150000075,164196.594,164199.86499997322,164206.397,164501.48,,10,common
screen,html.Screen,2_1_0_1_11,2021-04-24T14:53:55.670Z,,,,,,,,,,,,,,,,,53,,,,,,,,,,,,,,303.0599999827973,,response,,,,99,,,,,,,Space,keypress(Space),,,,,,,,---- -- ----- -- ------ - ------- --- ----------<br>------------- ------ wisdom ---- ---- ------- ----- -- ----<br>-------- ------- -- ---------- --- - --- ----- ----- ----<br>---- --- --- ----- --- ---- ---- ------- ----- ---- -------<br>--- --- -- ----- -- --- ---- -- --- ---- -- ------ ------<br>--- ----- -- ----,164805.22999999812,164804.5399999828,164490.047,164491.2749999785,164501.48,164817.743,,11,wisdom
screen,html.Screen,2_1_0_1_12,2021-04-24T14:53:56.008Z,,,,,,,,,,,,,,,,,53,,,,,,,,,,,,,,324.46199998192606,,response,,,,99,,,,,,,Space,keypress(Space),,,,,,,,---- -- ----- -- ------ - ------- --- ----------<br>------------- ------ ------ says ---- ------- ----- -- ----<br>-------- ------- -- ---------- --- - --- ----- ----- ----<br>---- --- --- ----- --- ---- ---- ------- ----- ---- -------<br>--- --- -- ----- -- --- ---- -- --- ---- -- ------ ------<br>--- ----- -- ----,165143.3149999939,165142.2049999819,164801.523,164805.40999997174,164817.743,165150.178,,12,says
screen,html.Screen,2_1_0_1_13,2021-04-24T14:53:56.496Z,,,,,,,,,,,,,,,,,53,,,,,,,,,,,,,,480.2569999991101,,response,,,,99,,,,,,,Space,keypress(Space),,,,,,,,---- -- ----- -- ------ - ------- --- ----------<br>------------- ------ ------ ---- that ------- ----- -- ----<br>-------- ------- -- ---------- --- - --- ----- ----- ----<br>---- --- --- ----- --- ---- ---- ------- ----- ---- -------<br>--- --- -- ----- -- --- ---- -- --- ---- -- ------ ------<br>--- ----- -- ----,165631.5300000133,165630.43499999912,165134.496,165143.6349999858,165150.178,165638.533,,13,that
screen,html.Screen,2_1_0_1_14,2021-04-24T14:53:56.740Z,,,,,,,,,,,,,,,,,53,,,,,,,,,,,,,,235.4919999682461,,response,,,,99,,,,,,,Space,keypress(Space),,,,,,,,---- -- ----- -- ------ - ------- --- ----------<br>------------- ------ ------ ---- ---- feeling ----- -- ----<br>-------- ------- -- ---------- --- - --- ----- ----- ----<br>---- --- --- ----- --- ---- ---- ------- ----- ---- -------<br>--- --- -- ----- -- --- ---- -- --- ---- -- ------ ------<br>--- ----- -- ----,165875.12499996228,165874.02499996824,165617.216,165631.86999998288,165638.533,165888.732,,14,feeling
screen,html.Screen,2_1_0_1_15,2021-04-24T14:53:57.258Z,,,,,,,,,,,,,,,,,53,,,,,,,,,,,,,,503.48299999986193,,response,,,,99,,,,,,,Space,keypress(Space),,,,,,,,---- -- ----- -- ------ - ------- --- ----------<br>------------- ------ ------ ---- ---- ------- close -- ----<br>-------- ------- -- ---------- --- - --- ----- ----- ----<br>---- --- --- ----- --- ---- ---- ------- ----- ---- -------<br>--- --- -- ----- -- --- ---- -- --- ---- -- ------ ------<br>--- ----- -- ----,166393.36499996716,166392.21499999985,165872.059,165875.475000008,165888.732,166400.212,,15,close
screen,html.Screen,2_1_0_1_16,2021-04-24T14:53:57.522Z,,,,,,,,,,,,,,,,,53,,,,,,,,,,,,,,256.12799998681294,,response,,,,99,,,,,,,Space,keypress(Space),,,,,,,,---- -- ----- -- ------ - ------- --- ----------<br>------------- ------ ------ ---- ---- ------- ----- to ----<br>-------- ------- -- ---------- --- - --- ----- ----- ----<br>---- --- --- ----- --- ---- ---- ------- ----- ---- -------<br>--- --- -- ----- -- --- ---- -- --- ---- -- ------ ------<br>--- ----- -- ----,166657.39000000758,166656.3399999868,166388.837,166393.7000000151,166400.212,166664.208,,16,to
screen,html.Screen,2_1_0_1_17,2021-04-24T14:53:57.809Z,,,,,,,,,,,,,,,,,53,,,,,,,,,,,,,,278.9369999683404,,response,,,,99,,,,,,,Space,keypress(Space),,,,,,,,---- -- ----- -- ------ - ------- --- ----------<br>------------- ------ ------ ---- ---- ------- ----- -- your<br>-------- ------- -- ---------- --- - --- ----- ----- ----<br>---- --- --- ----- --- ---- ---- ------- ----- ---- -------<br>--- --- -- ----- -- --- ---- -- --- ---- -- ------ ------<br>--- ----- -- ----,166944.22499998473,166943.14499996835,166650.594,166657.72999997716,166664.208,166947.638,,17,your
screen,html.Screen,2_1_0_1_18,2021-04-24T14:53:58.483Z,,,,,,,,,,,,,,,,,53,,,,,,,,,,,,,,669.6120000102383,,response,,,,99,,,,,,,Space,keypress(Space),,,,,,,,---- -- ----- -- ------ - ------- --- ----------<br>------------- ------ ------ ---- ---- ------- ----- -- ----<br>romantic ------- -- ---------- --- - --- ----- ----- ----<br>---- --- --- ----- --- ---- ---- ------- ----- ---- -------<br>--- --- -- ----- -- --- ---- -- --- ---- -- ------ ------<br>--- ----- -- ----,167618.38499997975,167617.25000001024,166931.267,166944.56999999238,166947.638,167625.223,,18,romantic
screen,html.Screen,2_1_0_1_19,2021-04-24T14:53:58.713Z,,,,,,,,,,,,,,,,,53,,,,,,,,,,,,,,222.3270000058692,,response,,,,99,,,,,,,Space,keypress(Space),,,,,,,,---- -- ----- -- ------ - ------- --- ----------<br>------------- ------ ------ ---- ---- ------- ----- -- ----<br>-------- partner -- ---------- --- - --- ----- ----- ----<br>---- --- --- ----- --- ---- ---- ------- ----- ---- -------<br>--- --- -- ----- -- --- ---- -- --- ---- -- ------ ------<br>--- ----- -- ----,167848.62999996403,167847.55000000587,167603.345,167618.72500000754,167625.223,167863.118,,19,partner
screen,html.Screen,2_1_0_1_20,2021-04-24T14:53:58.991Z,,,,,,,,,,,,,,,,,53,,,,,,,,,,,,,,262.1769999761891,,response,,,,99,,,,,,,Space,keypress(Space),,,,,,,,---- -- ----- -- ------ - ------- --- ----------<br>------------- ------ ------ ---- ---- ------- ----- -- ----<br>-------- ------- is ---------- --- - --- ----- ----- ----<br>---- --- --- ----- --- ---- ---- ------- ----- ---- -------<br>--- --- -- ----- -- --- ---- -- --- ---- -- ------ ------<br>--- ----- -- ----,168126.39499997022,168125.29499997618,167842.255,167848.95499999402,167863.118,168133.265,,20,is
screen,html.Screen,2_1_0_1_21,2021-04-24T14:53:59.301Z,,,,,,,,,,,,,,,,,53,,,,,,,,,,,,,,301.85000000020955,,response,,,,99,,,,,,,Space,keypress(Space),,,,,,,,---- -- ----- -- ------ - ------- --- ----------<br>------------- ------ ------ ---- ---- ------- ----- -- ----<br>-------- ------- -- paramount. --- - --- ----- ----- ----<br>---- --- --- ----- --- ---- ---- ------- ----- ---- -------<br>--- --- -- ----- -- --- ---- -- --- ---- -- ------ ------<br>--- ----- -- ----,168436.25999998767,168435.11500000022,168113.123,168126.71499996213,168133.265,168443.036,,21,paramount.
screen,html.Screen,2_1_0_1_22,2021-04-24T14:53:59.835Z,,,,,,,,,,,,,,,,,53,,,,,,,,,,,,,,526.2590000171622,,response,,,,99,,,,,,,Space,keypress(Space),,,,,,,,---- -- ----- -- ------ - ------- --- ----------<br>------------- ------ ------ ---- ---- ------- ----- -- ----<br>-------- ------- -- ---------- But - --- ----- ----- ----<br>---- --- --- ----- --- ---- ---- ------- ----- ---- -------<br>--- --- -- ----- -- --- ---- -- --- ---- -- ------ ------<br>--- ----- -- ----,168970.3800000134,168969.29500001715,168433.66,168436.58500001766,168443.036,168977.212,,22,But
screen,html.Screen,2_1_0_1_23,2021-04-24T14:54:00.061Z,,,,,,,,,,,,,,,,,53,,,,,,,,,,,,,,218.02799997181864,,response,,,,99,,,,,,,Space,keypress(Space),,,,,,,,---- -- ----- -- ------ - ------- --- ----------<br>------------- ------ ------ ---- ---- ------- ----- -- ----<br>-------- ------- -- ---------- --- a --- ----- ----- ----<br>---- --- --- ----- --- ---- ---- ------- ----- ---- -------<br>--- --- -- ----- -- --- ---- -- --- ---- -- ------ ------<br>--- ----- -- ----,169196.5649999911,169195.23999997182,168960.137,168970.72499996284,168977.212,169203.462,,23,a
screen,html.Screen,2_1_0_1_24,2021-04-24T14:54:00.294Z,,,,,,,,,,,,,,,,,53,,,,,,,,,,,,,,224.84300000855,,response,,,,99,,,,,,,Space,keypress(Space),,,,,,,,---- -- ----- -- ------ - ------- --- ----------<br>------------- ------ ------ ---- ---- ------- ----- -- ----<br>-------- ------- -- ---------- --- - new ----- ----- ----<br>---- --- --- ----- --- ---- ---- ------- ----- ---- -------<br>--- --- -- ----- -- --- ---- -- --- ---- -- ------ ------<br>--- ----- -- ----,169429.39499998465,169428.30500000855,169194.284,169196.88000000315,169203.462,169436.314,,24,new
screen,html.Screen,2_1_0_1_25,2021-04-24T14:54:00.537Z,,,,,,,,,,,,,,,,,53,,,,,,,,,,,,,,234.99600000516511,,response,,,,99,,,,,,,Space,keypress(Space),,,,,,,,---- -- ----- -- ------ - ------- --- ----------<br>------------- ------ ------ ---- ---- ------- ----- -- ----<br>-------- ------- -- ---------- --- - --- study ----- ----<br>---- --- --- ----- --- ---- ---- ------- ----- ---- -------<br>--- --- -- ----- -- --- ---- -- --- ---- -- ------ ------<br>--- ----- -- ----,169672.5199999637,169671.31000000518,169420.512,169429.74499997217,169436.314,169679.35,,25,study
screen,html.Screen,2_1_0_1_26,2021-04-24T14:54:00.797Z,,,,,,,,,,,,,,,,,53,,,,,,,,,,,,,,251.6249999665597,,response,,,,99,,,,,,,Space,keypress(Space),,,,,,,,---- -- ----- -- ------ - ------- --- ----------<br>------------- ------ ------ ---- ---- ------- ----- -- ----<br>-------- ------- -- ---------- --- - --- ----- finds ----<br>---- --- --- ----- --- ---- ---- ------- ----- ---- -------<br>--- --- -- ----- -- --- ---- -- --- ---- -- ------ ------<br>--- ----- -- ----,169932.18000000343,169930.97499996657,169669.91,169672.83499997575,169679.35,169946.293,,26,finds
screen,html.Screen,2_1_0_1_27,2021-04-24T14:54:01.084Z,,,,,,,,,,,,,,,,,53,,,,,,,,,,,,,,271.9319999605068,,response,,,,99,,,,,,,Space,keypress(Space),,,,,,,,---- -- ----- -- ------ - ------- --- ----------<br>------------- ------ ------ ---- ---- ------- ----- -- ----<br>-------- ------- -- ---------- --- - --- ----- ----- that<br>---- --- --- ----- --- ---- ---- ------- ----- ---- -------<br>--- --- -- ----- -- --- ---- -- --- ---- -- ------ ------<br>--- ----- -- ----,170219.3349999725,170218.2249999605,169929.707,169932.51499999315,169946.293,170229.552,,27,that
screen,html.Screen,2_1_0_1_28,2021-04-24T14:54:01.455Z,,,,,,,,,,,,,,,,,53,,,,,,,,,,,,,,359.8079999835754,,response,,,,99,,,,,,,Space,keypress(Space),,,,,,,,---- -- ----- -- ------ - ------- --- ----------<br>------------- ------ ------ ---- ---- ------- ----- -- ----<br>-------- ------- -- ---------- --- - --- ----- ----- ----<br>it's --- --- ----- --- ---- ---- ------- ----- ---- -------<br>--- --- -- ----- -- --- ---- -- --- ---- -- ------ ------<br>--- ----- -- ----,170590.43999999994,170589.35999998357,170213.139,170219.66000000248,170229.552,170597.254,,28,it's
screen,html.Screen,2_1_0_1_29,2021-04-24T14:54:01.724Z,,,,,,,,,,,,,,,,,53,,,,,,,,,,,,,,260.7509999873291,,response,,,,99,,,,,,,Space,keypress(Space),,,,,,,,---- -- ----- -- ------ - ------- --- ----------<br>------------- ------ ------ ---- ---- ------- ----- -- ----<br>-------- ------- -- ---------- --- - --- ----- ----- ----<br>---- not --- ----- --- ---- ---- ------- ----- ---- -------<br>--- --- -- ----- -- --- ---- -- --- ---- -- ------ ------<br>--- ----- -- ----,170859.1299999971,170858.00499998732,170579.833,170590.77499998966,170597.254,170876.034,,29,not
screen,html.Screen,2_1_0_1_30,2021-04-24T14:54:01.939Z,,,,,,,,,,,,,,,,,53,,,,,,,,,,,,,,197.10599999313126,,response,,,,99,,,,,,,Space,keypress(Space),,,,,,,,---- -- ----- -- ------ - ------- --- ----------<br>------------- ------ ------ ---- ---- ------- ----- -- ----<br>-------- ------- -- ---------- --- - --- ----- ----- ----<br>---- --- how ----- --- ---- ---- ------- ----- ---- -------<br>--- --- -- ----- -- --- ---- -- --- ---- -- ------ ------<br>--- ----- -- ----,171074.17999999598,171073.13999999315,170847.362,170859.45499996888,170876.034,171081.247,,30,how
screen,html.Screen,2_1_0_1_31,2021-04-24T14:54:02.095Z,,,,,,,,,,,,,,,,,53,,,,,,,,,,,,,,148.05799998619477,,response,,,,99,,,,,,,Space,keypress(Space),,,,,,,,---- -- ----- -- ------ - ------- --- ----------<br>------------- ------ ------ ---- ---- ------- ----- -- ----<br>-------- ------- -- ---------- --- - --- ----- ----- ----<br>---- --- --- close --- ---- ---- ------- ----- ---- -------<br>--- --- -- ----- -- --- ---- -- --- ---- -- ------ ------<br>--- ----- -- ----,171230.50999996485,171229.3049999862,171059.036,171074.5149999857,171081.247,171248.22,,31,close
screen,html.Screen,2_1_0_1_32,2021-04-24T14:54:02.571Z,,,,,,,,,,,,,,,,,53,,,,,,,,,,,,,,456.4549999863084,,response,,,,99,,,,,,,Space,keypress(Space),,,,,,,,---- -- ----- -- ------ - ------- --- ----------<br>------------- ------ ------ ---- ---- ------- ----- -- ----<br>-------- ------- -- ---------- --- - --- ----- ----- ----<br>---- --- --- ----- you ---- ---- ------- ----- ---- -------<br>--- --- -- ----- -- --- ---- -- --- ---- -- ------ ------<br>--- ----- -- ----,171705.7999999961,171704.6749999863,171231.443,171230.84500001278,171248.22,171712.613,,32,you
screen,html.Screen,2_1_0_1_33,2021-04-24T14:54:02.779Z,,,,,,,,,,,,,,,,,53,,,,,,,,,,,,,,200.6419999630889,,response,,,,99,,,,,,,Space,keypress(Space),,,,,,,,---- -- ----- -- ------ - ------- --- ----------<br>------------- ------ ------ ---- ---- ------- ----- -- ----<br>-------- ------- -- ---------- --- - --- ----- ----- ----<br>---- --- --- ----- --- feel ---- ------- ----- ---- -------<br>--- --- -- ----- -- --- ---- -- --- ---- -- ------ ------<br>--- ----- -- ----,171914.38999999082,171913.2549999631,171703.524,171706.13000000594,171712.613,171929.387,,33,feel
screen,html.Screen,2_1_0_1_34,2021-04-24T14:54:02.978Z,,,,,,,,,,,,,,,,,53,,,,,,,,,,,,,,181.73300001595635,,response,,,,99,,,,,,,Space,keypress(Space),,,,,,,,---- -- ----- -- ------ - ------- --- ----------<br>------------- ------ ------ ---- ---- ------- ----- -- ----<br>-------- ------- -- ---------- --- - --- ----- ----- ----<br>---- --- --- ----- --- ---- that ------- ----- ---- -------<br>--- --- -- ----- -- --- ---- -- --- ---- -- ------ ------<br>--- ----- -- ----,172112.77999996673,172111.12000001594,171912.983,171914.73499999847,171929.387,172119.58,,34,that
screen,html.Screen,2_1_0_1_35,2021-04-24T14:54:03.206Z,,,,,,,,,,,,,,,,,53,,,,,,,,,,,,,,220.75999999520718,,response,,,,99,,,,,,,Space,keypress(Space),,,,,,,,---- -- ----- -- ------ - ------- --- ----------<br>------------- ------ ------ ---- ---- ------- ----- -- ----<br>-------- ------- -- ---------- --- - --- ----- ----- ----<br>---- --- --- ----- --- ---- ---- matters ----- ---- -------<br>--- --- -- ----- -- --- ---- -- --- ---- -- ------ ------<br>--- ----- -- ----,172341.55000001192,172340.3399999952,172112.872,172113.1249999744,172119.58,172349.904,,35,matters
screen,html.Screen,2_1_0_1_36,2021-04-24T14:54:03.479Z,,,,,,,,,,,,,,,,,53,,,,,,,,,,,,,,262.4610000081302,,response,,,,99,,,,,,,Space,keypress(Space),,,,,,,,"---- -- ----- -- ------ - ------- --- ----------<br>------------- ------ ------ ---- ---- ------- ----- -- ----<br>-------- ------- -- ---------- --- - --- ----- ----- ----<br>---- --- --- ----- --- ---- ---- ------- most, ---- -------<br>--- --- -- ----- -- --- ---- -- --- ---- -- ------ ------<br>--- ----- -- ----",172613.84999996517,172612.36500000814,172336.667,172343.3949999744,172349.904,172620.665,,36,"most,"
screen,html.Screen,2_1_0_1_37,2021-04-24T14:54:04.112Z,,,,,,,,,,,,,,,,,53,,,,,,,,,,,,,,625.5699999695935,,response,,,,99,,,,,,,Space,keypress(Space),,,,,,,,---- -- ----- -- ------ - ------- --- ----------<br>------------- ------ ------ ---- ---- ------- ----- -- ----<br>-------- ------- -- ---------- --- - --- ----- ----- ----<br>---- --- --- ----- --- ---- ---- ------- ----- it's -------<br>--- --- -- ----- -- --- ---- -- --- ---- -- ------ ------<br>--- ----- -- ----,173247.3100000061,173246.2349999696,172600.267,172614.1550000175,172620.665,173254.116,,37,it's
screen,html.Screen,2_1_0_1_38,2021-04-24T14:54:04.373Z,,,,,,,,,,,,,,,,,53,,,,,,,,,,,,,,253.12400000626803,,response,,,,99,,,,,,,Space,keypress(Space),,,,,,,,---- -- ----- -- ------ - ------- --- ----------<br>------------- ------ ------ ---- ---- ------- ----- -- ----<br>-------- ------- -- ---------- --- - --- ----- ----- ----<br>---- --- --- ----- --- ---- ---- ------- ----- ---- whether<br>--- --- -- ----- -- --- ---- -- --- ---- -- ------ ------<br>--- ----- -- ----,173508.4499999648,173507.24000000628,173237.791,173247.6349999779,173254.116,173515.206,,38,whether
screen,html.Screen,2_1_0_1_39,2021-04-24T14:54:04.754Z,,,,,,,,,,,,,,,,,53,,,,,,,,,,,,,,373.03899998008274,,response,,,,99,,,,,,,Space,keypress(Space),,,,,,,,---- -- ----- -- ------ - ------- --- ----------<br>------------- ------ ------ ---- ---- ------- ----- -- ----<br>-------- ------- -- ---------- --- - --- ----- ----- ----<br>---- --- --- ----- --- ---- ---- ------- ----- ---- -------<br>you --- -- ----- -- --- ---- -- --- ---- -- ------ ------<br>--- ----- -- ----,173889.3500000122,173888.2449999801,173504.505,173508.7899999926,173515.206,173896.222,,39,you
screen,html.Screen,2_1_0_1_40,2021-04-24T14:54:05.009Z,,,,,,,,,,,,,,,,,53,,,,,,,,,,,,,,246.44299999211216,,response,,,,99,,,,,,,Space,keypress(Space),,,,,,,,---- -- ----- -- ------ - ------- --- ----------<br>------------- ------ ------ ---- ---- ------- ----- -- ----<br>-------- ------- -- ---------- --- - --- ----- ----- ----<br>---- --- --- ----- --- ---- ---- ------- ----- ---- -------<br>--- are -- ----- -- --- ---- -- --- ---- -- ------ ------<br>--- ----- -- ----,174143.86000001105,174142.66499999212,173882.316,173889.6550000063,173896.222,174150.644,,40,are
screen,html.Screen,2_1_0_1_41,2021-04-24T14:54:05.189Z,,,,,,,,,,,,,,,,,53,,,,,,,,,,,,,,172.60600001583225,,response,,,,99,,,,,,,Space,keypress(Space),,,,,,,,---- -- ----- -- ------ - ------- --- ----------<br>------------- ------ ------ ---- ---- ------- ----- -- ----<br>-------- ------- -- ---------- --- - --- ----- ----- ----<br>---- --- --- ----- --- ---- ---- ------- ----- ---- -------<br>--- --- as ----- -- --- ---- -- --- ---- -- ------ ------<br>--- ----- -- ----,174324.33999999193,174323.25000001583,174129.913,174144.1599999671,174150.644,174334.122,,41,as
screen,html.Screen,2_1_0_1_42,2021-04-24T14:54:05.410Z,,,,,,,,,,,,,,,,,53,,,,,,,,,,,,,,210.28299999327282,,response,,,,99,,,,,,,Space,keypress(Space),,,,,,,,---- -- ----- -- ------ - ------- --- ----------<br>------------- ------ ------ ---- ---- ------- ----- -- ----<br>-------- ------- -- ---------- --- - --- ----- ----- ----<br>---- --- --- ----- --- ---- ---- ------- ----- ---- -------<br>--- --- -- close -- --- ---- -- --- ---- -- ------ ------<br>--- ----- -- ----,174545.50499998732,174544.40499999328,174317.386,174324.6700000018,174334.122,174552.281,,42,close
screen,html.Screen,2_1_0_1_43,2021-04-24T14:54:05.637Z,,,,,,,,,,,,,,,,,53,,,,,,,,,,,,,,218.35900000247057,,response,,,,99,,,,,,,Space,keypress(Space),,,,,,,,---- -- ----- -- ------ - ------- --- ----------<br>------------- ------ ------ ---- ---- ------- ----- -- ----<br>-------- ------- -- ---------- --- - --- ----- ----- ----<br>---- --- --- ----- --- ---- ---- ------- ----- ---- -------<br>--- --- -- ----- as --- ---- -- --- ---- -- ------ ------<br>--- ----- -- ----,174771.99500001734,174770.64000000246,174534.386,174545.82499997923,174552.281,174778.893,,43,as
screen,html.Screen,2_1_0_1_44,2021-04-24T14:54:05.897Z,,,,,,,,,,,,,,,,,53,,,,,,,,,,,,,,252.3319999842497,,response,,,,99,,,,,,,Space,keypress(Space),,,,,,,,---- -- ----- -- ------ - ------- --- ----------<br>------------- ------ ------ ---- ---- ------- ----- -- ----<br>-------- ------- -- ---------- --- - --- ----- ----- ----<br>---- --- --- ----- --- ---- ---- ------- ----- ---- -------<br>--- --- -- ----- -- you ---- -- --- ---- -- ------ ------<br>--- ----- -- ----,175032.5549999834,175031.22499998426,174769.228,174772.3549999646,174778.893,175045.716,,44,you
screen,html.Screen,2_1_0_1_45,2021-04-24T14:54:06.257Z,,,,,,,,,,,,,,,,,53,,,,,,,,,,,,,,344.7890000175976,,response,,,,99,,,,,,,Space,keypress(Space),,,,,,,,---- -- ----- -- ------ - ------- --- ----------<br>------------- ------ ------ ---- ---- ------- ----- -- ----<br>-------- ------- -- ---------- --- - --- ----- ----- ----<br>---- --- --- ----- --- ---- ---- ------- ----- ---- -------<br>--- --- -- ----- -- --- want -- --- ---- -- ------ ------<br>--- ----- -- ----,175392.29499996873,175390.50500001758,175029.232,175036.8099999614,175045.716,175399.317,,45,want
screen,html.Screen,2_1_0_1_46,2021-04-24T14:54:06.581Z,,,,,,,,,,,,,,,,,53,,,,,,,,,,,,,,315.9229999904346,,response,,,,99,,,,,,,Space,keypress(Space),,,,,,,,---- -- ----- -- ------ - ------- --- ----------<br>------------- ------ ------ ---- ---- ------- ----- -- ----<br>-------- ------- -- ---------- --- - --- ----- ----- ----<br>---- --- --- ----- --- ---- ---- ------- ----- ---- -------<br>--- --- -- ----- -- --- ---- to --- ---- -- ------ ------<br>--- ----- -- ----,175716.52000001632,175715.23999999044,175379.3,175392.62499997858,175399.317,175739.915,,46,to
screen,html.Screen,2_1_0_1_47,2021-04-24T14:54:06.954Z,,,,,,,,,,,,,,,,,53,,,,,,,,,,,,,,347.63999997641076,,response,,,,99,,,,,,,Space,keypress(Space),,,,,,,,"---- -- ----- -- ------ - ------- --- ----------<br>------------- ------ ------ ---- ---- ------- ----- -- ----<br>-------- ------- -- ---------- --- - --- ----- ----- ----<br>---- --- --- ----- --- ---- ---- ------- ----- ---- -------<br>--- --- -- ----- -- --- ---- -- be, ---- -- ------ ------<br>--- ----- -- ----",176088.82999996422,176087.55499997642,175716.344,175716.87000000384,175739.915,176095.847,,47,"be,"
screen,html.Screen,2_1_0_1_48,2021-04-24T14:54:07.384Z,,,,,,,,,,,,,,,,,53,,,,,,,,,,,,,,421.7729999987059,,response,,,,99,,,,,,,Space,keypress(Space),,,,,,,,---- -- ----- -- ------ - ------- --- ----------<br>------------- ------ ------ ---- ---- ------- ----- -- ----<br>-------- ------- -- ---------- --- - --- ----- ----- ----<br>---- --- --- ----- --- ---- ---- ------- ----- ---- -------<br>--- --- -- ----- -- --- ---- -- --- even -- ------ ------<br>--- ----- -- ----,176518.82499997737,176517.61999999871,176085.245,176089.1849999898,176095.847,176525.805,,48,even
screen,html.Screen,2_1_0_1_49,2021-04-24T14:54:07.639Z,,,,,,,,,,,,,,,,,53,,,,,,,,,,,,,,247.3949999960023,,response,,,,99,,,,,,,Space,keypress(Space),,,,,,,,---- -- ----- -- ------ - ------- --- ----------<br>------------- ------ ------ ---- ---- ------- ----- -- ----<br>-------- ------- -- ---------- --- - --- ----- ----- ----<br>---- --- --- ----- --- ---- ---- ------- ----- ---- -------<br>--- --- -- ----- -- --- ---- -- --- ---- if ------ ------<br>--- ----- -- ----,176774.28499999223,176773.199999996,176512.893,176519.15000000736,176525.805,176781.302,,49,if
screen,html.Screen,2_1_0_1_50,2021-04-24T14:54:07.892Z,,,,,,,,,,,,,,,,,53,,,,,,,,,,,,,,244.76299998364993,,response,,,,99,,,,,,,Space,keypress(Space),,,,,,,,---- -- ----- -- ------ - ------- --- ----------<br>------------- ------ ------ ---- ---- ------- ----- -- ----<br>-------- ------- -- ---------- --- - --- ----- ----- ----<br>---- --- --- ----- --- ---- ---- ------- ----- ---- -------<br>--- --- -- ----- -- --- ---- -- --- ---- -- that's ------<br>--- ----- -- ----,177027.15999999782,177026.06499998365,176759.523,176774.57000000868,176781.302,177036.496,,50,that's
screen,html.Screen,2_1_0_1_51,2021-04-24T14:54:08.151Z,,,,,,,,,,,,,,,,,53,,,,,,,,,,,,,,248.4889999765728,,response,,,,99,,,,,,,Space,keypress(Space),,,,,,,,---- -- ----- -- ------ - ------- --- ----------<br>------------- ------ ------ ---- ---- ------- ----- -- ----<br>-------- ------- -- ---------- --- - --- ----- ----- ----<br>---- --- --- ----- --- ---- ---- ------- ----- ---- -------<br>--- --- -- ----- -- --- ---- -- --- ---- -- ------ really<br>--- ----- -- ----,177286.09499998856,177284.9849999766,177014.795,177027.4699999718,177036.496,177292.855,,51,really
screen,html.Screen,2_1_0_1_52,2021-04-24T14:54:08.618Z,,,,,,,,,,,,,,,,,53,,,,,,,,,,,,,,459.24999996318365,,response,,,,99,,,,,,,Space,keypress(Space),,,,,,,,---- -- ----- -- ------ - ------- --- ----------<br>------------- ------ ------ ---- ---- ------- ----- -- ----<br>-------- ------- -- ---------- --- - --- ----- ----- ----<br>---- --- --- ----- --- ---- ---- ------- ----- ---- -------<br>--- --- -- ----- -- --- ---- -- --- ---- -- ------ ------<br>not ----- -- ----,177753.16999998176,177752.1049999632,177286.844,177286.37499996694,177292.855,177760.008,,52,not
screen,html.Screen,2_1_0_1_53,2021-04-24T14:54:08.845Z,,,,,,,,,,,,,,,,,53,,,,,,,,,,,,,,218.8219999781868,,response,,,,99,,,,,,,Space,keypress(Space),,,,,,,,---- -- ----- -- ------ - ------- --- ----------<br>------------- ------ ------ ---- ---- ------- ----- -- ----<br>-------- ------- -- ---------- --- - --- ----- ----- ----<br>---- --- --- ----- --- ---- ---- ------- ----- ---- -------<br>--- --- -- ----- -- --- ---- -- --- ---- -- ------ ------<br>--- close -- ----,177980.08000000846,177978.8299999782,177743.233,177753.48000001395,177760.008,177983.261,,53,close
screen,html.Screen,2_1_0_1_54,2021-04-24T14:54:09.236Z,,,,,,,,,,,,,,,,,53,,,,,,,,,,,,,,387.1690000099479,,response,,,,99,,,,,,,Space,keypress(Space),,,,,,,,---- -- ----- -- ------ - ------- --- ----------<br>------------- ------ ------ ---- ---- ------- ----- -- ----<br>-------- ------- -- ---------- --- - --- ----- ----- ----<br>---- --- --- ----- --- ---- ---- ------- ----- ---- -------<br>--- --- -- ----- -- --- ---- -- --- ---- -- ------ ------<br>--- ----- at ----,178371.45500001498,178370.43000000995,177977.069,177980.5349999806,177983.261,178379.199,,54,at
screen,html.Screen,2_1_0_1_55,2021-04-24T14:54:09.597Z,,,,,,,,,,,,,,,,,53,,,,,,,,,,,,,,352.1260000006587,,response,,,,99,,,,,,,Space,keypress(Space),,,,,,,,---- -- ----- -- ------ - ------- --- ----------<br>------------- ------ ------ ---- ---- ------- ----- -- ----<br>-------- ------- -- ---------- --- - --- ----- ----- ----<br>---- --- --- ----- --- ---- ---- ------- ----- ---- -------<br>--- --- -- ----- -- --- ---- -- --- ---- -- ------ ------<br>--- ----- -- all.,178732.51000000164,178731.32500000065,178367.036,178371.7300000135,178379.199,178740.103,,55,all.
Item 99,flow.Loop,2_1_0_1,2021-04-24T14:54:09.598Z,,,,,,,,,,,,,,,,,,,,,,,,,,,,,,,18381.343000000663,,completion,,,,,C,,,,,,,,,,,silence,,,,,178733.0850000144,178731.32500000065,160316.972,160318.6749999877,160349.982,178740.103,,,
Question 1,html.Screen,2_1_0_2,2021-04-24T14:54:13.551Z,,,,,,,,,,,,,,,,,,,,,,,,,,,,true,FALSE,,3943.951999961515,,response,,,,99,C,,,,,,FALSE,click #choice-2,,,,silence,,,,,182685.78499997966,182684.05499996152,178729.614,178733.3600000129,178740.103,182689.488,,,
Question 2,html.Screen,2_1_0_3,2021-04-24T14:54:17.641Z,,,,,,,,,,,,,,,,,,,,,,,,,,,,true,TRUE,,4084.7719999764813,,response,,,,99,C,,,,,,TRUE,click #choice-1,,,,silence,,,,,186775.97499999683,186774.2599999765,182682.841,182686.10499997158,182689.488,186786.199,,,
Item 99,flow.Sequence,2_1_0,2021-04-24T14:54:17.641Z,,,,,,,,,,,,,,,,,,,,,,,,,,,,,,,36444.30199997648,,completion,,,,,,,,,,,,,,,,,,,,,186776.42999996897,186774.2599999765,150313.557,150317.97999999253,150329.958,186786.199,,,
Holding screen,html.Screen,2_1_1_0,2021-04-24T14:54:27.630Z,,,,,,,,,,,,,,,,,,,,,,,,,,,,,,,9993.896000000008,,timeout,,,,,,,,,,,,,,,,,,,,,196764.9199999869,196763.706,186769.772,186776.74999996088,186786.199,196780.095,,,
screen,html.Screen,2_1_1_1_0,2021-04-24T14:54:28.529Z,,,,,,,,,,,,,,,,,54,,,,,,,,,,,,,,882.9499999938707,,response,,,,100,,,,,,,Space,keypress(Space),,,,,,,,At --- ---- --- ------ ----- ------- ---- -- --- ------- --<br>------- ---------- ------ -- ----- -- ----- -- ---- ------<br>--- ----- --- --- ------ -------- ----- --- ------ ----- --<br>----- ----- ---------- --- --- ------ ------ ---- -- ------<br>------- --- ------ ----- --- ---- ------- -- ---- --- --<br>------- ------,197664.33499997947,197663.04499999387,196763.706,196765.29499999015,196780.095,197669.549,,0,At
screen,html.Screen,2_1_1_1_1,2021-04-24T14:54:28.898Z,,,,,,,,,,,,,,,,,54,,,,,,,,,,,,,,362.2460000171559,,response,,,,100,,,,,,,Space,keypress(Space),,,,,,,,-- the ---- --- ------ ----- ------- ---- -- --- ------- --<br>------- ---------- ------ -- ----- -- ----- -- ---- ------<br>--- ----- --- --- ------ -------- ----- --- ------ ----- --<br>----- ----- ---------- --- --- ------ ------ ---- -- ------<br>------- --- ------ ----- --- ---- ------- -- ---- --- --<br>------- ------,198033.07000000495,198031.79500001715,197647.334,197664.64500001166,197669.549,198040.125,,1,the
screen,html.Screen,2_1_1_1_2,2021-04-24T14:54:29.172Z,,,,,,,,,,,,,,,,,54,,,,,,,,,,,,,,265.83499996876344,,response,,,,100,,,,,,,Space,keypress(Space),,,,,,,,-- --- time --- ------ ----- ------- ---- -- --- ------- --<br>------- ---------- ------ -- ----- -- ----- -- ---- ------<br>--- ----- --- --- ------ -------- ----- --- ------ ----- --<br>----- ----- ---------- --- --- ------ ------ ---- -- ------<br>------- --- ------ ----- --- ---- ------- -- ---- --- --<br>------- ------,198307.0299999672,198305.95999996876,198019.998,198033.385000017,198040.125,198309.383,,2,time
screen,html.Screen,2_1_1_1_3,2021-04-24T14:54:29.551Z,,,,,,,,,,,,,,,,,54,,,,,,,,,,,,,,375.7919999914302,,response,,,,100,,,,,,,Space,keypress(Space),,,,,,,,-- --- ---- the ------ ----- ------- ---- -- --- ------- --<br>------- ---------- ------ -- ----- -- ----- -- ---- ------<br>--- ----- --- --- ------ -------- ----- --- ------ ----- --<br>----- ----- ---------- --- --- ------ ------ ---- -- ------<br>------- --- ------ ----- --- ---- ------- -- ---- --- --<br>------- ------,198686.27499998547,198685.17499999143,198306.899,198307.34499997925,198309.383,198693.072,,3,the
screen,html.Screen,2_1_1_1_4,2021-04-24T14:54:29.839Z,,,,,,,,,,,,,,,,,54,,,,,,,,,,,,,,280.1280000076513,,response,,,,100,,,,,,,Space,keypress(Space),,,,,,,,-- --- ---- --- French ----- ------- ---- -- --- ------- --<br>------- ---------- ------ -- ----- -- ----- -- ---- ------<br>--- ----- --- --- ------ -------- ----- --- ------ ----- --<br>----- ----- ---------- --- --- ------ ------ ---- -- ------<br>------- --- ------ ----- --- ---- ------- -- ---- --- --<br>------- ------,198974.3099999614,198973.20000000764,198676.509,198686.56999996165,198693.072,198981.31,,4,French
screen,html.Screen,2_1_1_1_5,2021-04-24T14:54:30.080Z,,,,,,,,,,,,,,,,,54,,,,,,,,,,,,,,233.00499999016756,,response,,,,100,,,,,,,Space,keypress(Space),,,,,,,,-- --- ---- --- ------ crown ------- ---- -- --- ------- --<br>------- ---------- ------ -- ----- -- ----- -- ---- ------<br>--- ----- --- --- ------ -------- ----- --- ------ ----- --<br>----- ----- ---------- --- --- ------ ------ ---- -- ------<br>------- --- ------ ----- --- ---- ------- -- ---- --- --<br>------- ------,199215.41000000434,199214.31499999017,198960.137,198974.60000001593,198981.31,199222.243,,5,crown
screen,html.Screen,2_1_1_1_6,2021-04-24T14:54:30.357Z,,,,,,,,,,,,,,,,,54,,,,,,,,,,,,,,269.2919999792066,,response,,,,100,,,,,,,Space,keypress(Space),,,,,,,,-- --- ---- --- ------ ----- secured ---- -- --- ------- --<br>------- ---------- ------ -- ----- -- ----- -- ---- ------<br>--- ----- --- --- ------ -------- ----- --- ------ ----- --<br>----- ----- ---------- --- --- ------ ------ ---- -- ------<br>------- --- ------ ----- --- ---- ------- -- ---- --- --<br>------- ------,199492.64999997104,199491.5349999792,199214.831,199215.69499996258,199222.243,199499.445,,6,secured
screen,html.Screen,2_1_1_1_7,2021-04-24T14:54:30.896Z,,,,,,,,,,,,,,,,,54,,,,,,,,,,,,,,530.9350000110571,,response,,,,100,,,,,,,Space,keypress(Space),,,,,,,,-- --- ---- --- ------ ----- ------- much -- --- ------- --<br>------- ---------- ------ -- ----- -- ----- -- ---- ------<br>--- ----- --- --- ------ -------- ----- --- ------ ----- --<br>----- ----- ---------- --- --- ------ ------ ---- -- ------<br>------- --- ------ ----- --- ---- ------- -- ---- --- --<br>------- ------,200031.5100000007,200030.38000001106,199489.292,199492.93999996735,199499.445,200038.347,,7,much
screen,html.Screen,2_1_1_1_8,2021-04-24T14:54:31.187Z,,,,,,,,,,,,,,,,,54,,,,,,,,,,,,,,282.98799998598406,,response,,,,100,,,,,,,Space,keypress(Space),,,,,,,,-- --- ---- --- ------ ----- ------- ---- of --- ------- --<br>------- ---------- ------ -- ----- -- ----- -- ---- ------<br>--- ----- --- --- ------ -------- ----- --- ------ ----- --<br>----- ----- ---------- --- --- ------ ------ ---- -- ------<br>------- --- ------ ----- --- ---- ------- -- ---- --- --<br>------- ------,200322.4550000159,200321.334999986,200016.529,200031.79999999702,200038.347,200329.234,,8,of
screen,html.Screen,2_1_1_1_9,2021-04-24T14:54:31.522Z,,,,,,,,,,,,,,,,,54,,,,,,,,,,,,,,327.0560000135447,,response,,,,100,,,,,,,Space,keypress(Space),,,,,,,,-- --- ---- --- ------ ----- ------- ---- -- its ------- --<br>------- ---------- ------ -- ----- -- ----- -- ---- ------<br>--- ----- --- --- ------ -------- ----- --- ------ ----- --<br>----- ----- ---------- --- --- ------ ------ ---- -- ------<br>------- --- ------ ----- --- ---- ------- -- ---- --- --<br>------- ------,200657.3699999717,200656.29000001354,200322.035,200322.73999997415,200329.234,200664.139,,9,its
screen,html.Screen,2_1_1_1_10,2021-04-24T14:54:32.095Z,,,,,,,,,,,,,,,,,54,,,,,,,,,,,,,,565.2359999953478,,response,,,,100,,,,,,,Space,keypress(Space),,,,,,,,-- --- ---- --- ------ ----- ------- ---- -- --- revenue --<br>------- ---------- ------ -- ----- -- ----- -- ---- ------<br>--- ----- --- --- ------ -------- ----- --- ------ ----- --<br>----- ----- ---------- --- --- ------ ------ ---- -- ------<br>------- --- ------ ----- --- ---- ------- -- ---- --- --<br>------- ------,201230.42999999598,201229.37499999534,200646.289,200657.65999996802,200664.139,201237.288,,10,revenue
screen,html.Screen,2_1_1_1_11,2021-04-24T14:54:32.637Z,,,,,,,,,,,,,,,,,54,,,,,,,,,,,,,,534.0720000133733,,response,,,,100,,,,,,,Space,keypress(Space),,,,,,,,-- --- ---- --- ------ ----- ------- ---- -- --- ------- by<br>------- ---------- ------ -- ----- -- ----- -- ---- ------<br>--- ----- --- --- ------ -------- ----- --- ------ ----- --<br>----- ----- ---------- --- --- ------ ------ ---- -- ------<br>------- --- ------ ----- --- ---- ------- -- ---- --- --<br>------- ------,201772.5249999785,201771.36000001337,201231.256,201230.7199999923,201237.288,201779.392,,11,by
screen,html.Screen,2_1_1_1_12,2021-04-24T14:54:33.168Z,,,,,,,,,,,,,,,,,54,,,,,,,,,,,,,,523.1429999661632,,response,,,,100,,,,,,,Space,keypress(Space),,,,,,,,-- --- ---- --- ------ ----- ------- ---- -- --- ------- --<br>issuing ---------- ------ -- ----- -- ----- -- ---- ------<br>--- ----- --- --- ------ -------- ----- --- ------ ----- --<br>----- ----- ---------- --- --- ------ ------ ---- -- ------<br>------- --- ------ ----- --- ---- ------- -- ---- --- --<br>------- ------,202303.59999998473,202302.53499996616,201771.071,201772.85000000848,201779.392,202310.412,,12,issuing
screen,html.Screen,2_1_1_1_13,2021-04-24T14:54:33.461Z,,,,,,,,,,,,,,,,,54,,,,,,,,,,,,,,284.78300000168383,,response,,,,100,,,,,,,Space,keypress(Space),,,,,,,,-- --- ---- --- ------ ----- ------- ---- -- --- ------- --<br>------- government ------ -- ----- -- ----- -- ---- ------<br>--- ----- --- --- ------ -------- ----- --- ------ ----- --<br>----- ----- ---------- --- --- ------ ------ ---- -- ------<br>------- --- ------ ----- --- ---- ------- -- ---- --- --<br>------- ------,202596.27499995986,202595.1950000017,202296.461,202303.88500000117,202310.412,202602.983,,13,government
screen,html.Screen,2_1_1_1_14,2021-04-24T14:54:33.966Z,,,,,,,,,,,,,,,,,54,,,,,,,,,,,,,,496.95200000563636,,response,,,,100,,,,,,,Space,keypress(Space),,,,,,,,-- --- ---- --- ------ ----- ------- ---- -- --- ------- --<br>------- ---------- bonds. -- ----- -- ----- -- ---- ------<br>--- ----- --- --- ------ -------- ----- --- ------ ----- --<br>----- ----- ---------- --- --- ------ ------ ---- -- ------<br>------- --- ------ ----- --- ---- ------- -- ---- --- --<br>------- ------,203101.09000001103,203099.93500000564,202594.095,202596.5899999719,202602.983,203107.887,,14,bonds.
screen,html.Screen,2_1_1_1_15,2021-04-24T14:54:34.868Z,,,,,,,,,,,,,,,,,54,,,,,,,,,,,,,,894.6130000023404,,response,,,,100,,,,,,,Space,keypress(Space),,,,,,,,-- --- ---- --- ------ ----- ------- ---- -- --- ------- --<br>------- ---------- ------ In ----- -- ----- -- ---- ------<br>--- ----- --- --- ------ -------- ----- --- ------ ----- --<br>----- ----- ---------- --- --- ------ ------ ---- -- ------<br>------- --- ------ ----- --- ---- ------- -- ---- --- --<br>------- ------,204003.59999999637,204002.50000000233,203086.801,203101.39500000514,203107.887,204010.356,,15,In
screen,html.Screen,2_1_1_1_16,2021-04-24T14:54:35.131Z,,,,,,,,,,,,,,,,,54,,,,,,,,,,,,,,254.48899999787682,,response,,,,100,,,,,,,Space,keypress(Space),,,,,,,,"-- --- ---- --- ------ ----- ------- ---- -- --- ------- --<br>------- ---------- ------ -- 1727, -- ----- -- ---- ------<br>--- ----- --- --- ------ -------- ----- --- ------ ----- --<br>----- ----- ---------- --- --- ------ ------ ---- -- ------<br>------- --- ------ ----- --- ---- ------- -- ---- --- --<br>------- ------",204265.91999997618,204264.84499999788,203991.721,204003.90999997035,204010.356,204272.764,,16,"1727,"
screen,html.Screen,2_1_1_1_17,2021-04-24T14:54:36.050Z,,,,,,,,,,,,,,,,,54,,,,,,,,,,,,,,911.55099996223,,response,,,,100,,,,,,,Space,keypress(Space),,,,,,,,-- --- ---- --- ------ ----- ------- ---- -- --- ------- --<br>------- ---------- ------ -- ----- in ----- -- ---- ------<br>--- ----- --- --- ------ -------- ----- --- ------ ----- --<br>----- ----- ---------- --- --- ------ ------ ---- -- ------<br>------- --- ------ ----- --- ---- ------- -- ---- --- --<br>------- ------,205185.41999999434,205184.31499996223,204260.574,204266.23499998823,204272.764,205192.221,,17,in
screen,html.Screen,2_1_1_1_18,2021-04-24T14:54:36.330Z,,,,,,,,,,,,,,,,,54,,,,,,,,,,,,,,271.97899998762296,,response,,,,100,,,,,,,Space,keypress(Space),,,,,,,,-- --- ---- --- ------ ----- ------- ---- -- --- ------- --<br>------- ---------- ------ -- ----- -- order -- ---- ------<br>--- ----- --- --- ------ -------- ----- --- ------ ----- --<br>----- ----- ---------- --- --- ------ ------ ---- -- ------<br>------- --- ------ ----- --- ---- ------- -- ---- --- --<br>------- ------,205465.29999998165,205464.1999999876,205173.27,205185.75499998406,205192.221,205481.523,,18,order
screen,html.Screen,2_1_1_1_19,2021-04-24T14:54:36.834Z,,,,,,,,,,,,,,,,,54,,,,,,,,,,,,,,486.4369999799528,,response,,,,100,,,,,,,Space,keypress(Space),,,,,,,,-- --- ---- --- ------ ----- ------- ---- -- --- ------- --<br>------- ---------- ------ -- ----- -- ----- to ---- ------<br>--- ----- --- --- ------ -------- ----- --- ------ ----- --<br>----- ----- ---------- --- --- ------ ------ ---- -- ------<br>------- --- ------ ----- --- ---- ------- -- ---- --- --<br>------- ------,205968.9950000029,205967.95999997994,205459.293,205465.58999997796,205481.523,205985.302,,19,to
screen,html.Screen,2_1_1_1_20,2021-04-24T14:54:37.135Z,,,,,,,,,,,,,,,,,54,,,,,,,,,,,,,,283.89799998063245,,response,,,,100,,,,,,,Space,keypress(Space),,,,,,,,-- --- ---- --- ------ ----- ------- ---- -- --- ------- --<br>------- ---------- ------ -- ----- -- ----- -- save ------<br>--- ----- --- --- ------ -------- ----- --- ------ ----- --<br>----- ----- ---------- --- --- ------ ------ ---- -- ------<br>------- --- ------ ----- --- ---- ------- -- ---- --- --<br>------- ------,206270.27500001714,206269.19999998063,205964.878,205969.28499999922,205985.302,206277.004,,20,save
screen,html.Screen,2_1_1_1_21,2021-04-24T14:54:37.672Z,,,,,,,,,,,,,,,,,54,,,,,,,,,,,,,,529.1559999782767,,response,,,,100,,,,,,,Space,keypress(Space),,,,,,,,"-- --- ---- --- ------ ----- ------- ---- -- --- ------- --<br>------- ---------- ------ -- ----- -- ----- -- ---- money,<br>--- ----- --- --- ------ -------- ----- --- ------ ----- --<br>----- ----- ---------- --- --- ------ ------ ---- -- ------<br>------- --- ------ ----- --- ---- ------- -- ---- --- --<br>------- ------",206807.22000001697,206806.15999997826,206268.604,206270.55999997538,206277.004,206814.278,,21,"money,"
screen,html.Screen,2_1_1_1_22,2021-04-24T14:54:38.494Z,,,,,,,,,,,,,,,,,54,,,,,,,,,,,,,,814.0870000114082,,response,,,,100,,,,,,,Space,keypress(Space),,,,,,,,-- --- ---- --- ------ ----- ------- ---- -- --- ------- --<br>------- ---------- ------ -- ----- -- ----- -- ---- ------<br>the ----- --- --- ------ -------- ----- --- ------ ----- --<br>----- ----- ---------- --- --- ------ ------ ---- -- ------<br>------- --- ------ ----- --- ---- ------- -- ---- --- --<br>------- ------,207629.4249999919,207628.3650000114,206793.772,206807.51499999315,206814.278,207640.423,,22,the
screen,html.Screen,2_1_1_1_23,2021-04-24T14:54:38.820Z,,,,,,,,,,,,,,,,,54,,,,,,,,,,,,,,313.89699996070703,,response,,,,100,,,,,,,Space,keypress(Space),,,,,,,,-- --- ---- --- ------ ----- ------- ---- -- --- ------- --<br>------- ---------- ------ -- ----- -- ----- -- ---- ------<br>--- state --- --- ------ -------- ----- --- ------ ----- --<br>----- ----- ---------- --- --- ------ ------ ---- -- ------<br>------- --- ------ ----- --- ---- ------- -- ---- --- --<br>------- ------,207955.36999998149,207954.31999996072,207614.544,207629.7449999838,207640.423,207962.194,,23,state
screen,html.Screen,2_1_1_1_24,2021-04-24T14:54:39.086Z,,,,,,,,,,,,,,,,,54,,,,,,,,,,,,,,258.0209999793733,,response,,,,100,,,,,,,Space,keypress(Space),,,,,,,,-- --- ---- --- ------ ----- ------- ---- -- --- ------- --<br>------- ---------- ------ -- ----- -- ----- -- ---- ------<br>--- ----- cut --- ------ -------- ----- --- ------ ----- --<br>----- ----- ---------- --- --- ------ ------ ---- -- ------<br>------- --- ------ ----- --- ---- ------- -- ---- --- --<br>------- ------,208221.30500001367,208220.21499997936,207945.466,207955.68000001367,207962.194,208228.124,,24,cut
screen,html.Screen,2_1_1_1_25,2021-04-24T14:54:39.385Z,,,,,,,,,,,,,,,,,54,,,,,,,,,,,,,,291.1509999696282,,response,,,,100,,,,,,,Space,keypress(Space),,,,,,,,-- --- ---- --- ------ ----- ------- ---- -- --- ------- --<br>------- ---------- ------ -- ----- -- ----- -- ---- ------<br>--- ----- --- the ------ -------- ----- --- ------ ----- --<br>----- ----- ---------- --- --- ------ ------ ---- -- ------<br>------- --- ------ ----- --- ---- ------- -- ---- --- --<br>------- ------,208520.41499997722,208519.27499996964,208212.578,208221.61499998765,208228.124,208531.298,,25,the
screen,html.Screen,2_1_1_1_26,2021-04-24T14:54:39.673Z,,,,,,,,,,,,,,,,,54,,,,,,,,,,,,,,275.9220000169589,,response,,,,100,,,,,,,Space,keypress(Space),,,,,,,,-- --- ---- --- ------ ----- ------- ---- -- --- ------- --<br>------- ---------- ------ -- ----- -- ----- -- ---- ------<br>--- ----- --- --- bonds' -------- ----- --- ------ ----- --<br>----- ----- ---------- --- --- ------ ------ ---- -- ------<br>------- --- ------ ----- --- ---- ------- -- ---- --- --<br>------- ------,208808.36999998428,208807.22000001697,208511.87,208520.69999999367,208531.298,208815.192,,26,bonds'
screen,html.Screen,2_1_1_1_27,2021-04-24T14:54:40.198Z,,,,,,,,,,,,,,,,,54,,,,,,,,,,,,,,516.2280000022438,,response,,,,100,,,,,,,Space,keypress(Space),,,,,,,,-- --- ---- --- ------ ----- ------- ---- -- --- ------- --<br>------- ---------- ------ -- ----- -- ----- -- ---- ------<br>--- ----- --- --- ------ interest ----- --- ------ ----- --<br>----- ----- ---------- --- --- ------ ------ ---- -- ------<br>------- --- ------ ----- --- ---- ------- -- ---- --- --<br>------- ------,209332.50999997836,209331.42000000225,208798.183,208808.66999999853,208815.192,209339.343,,27,interest
screen,html.Screen,2_1_1_1_28,2021-04-24T14:54:40.497Z,,,,,,,,,,,,,,,,,54,,,,,,,,,,,,,,291.3419999819016,,response,,,,100,,,,,,,Space,keypress(Space),,,,,,,,-- --- ---- --- ------ ----- ------- ---- -- --- ------- --<br>------- ---------- ------ -- ----- -- ----- -- ---- ------<br>--- ----- --- --- ------ -------- rate. --- ------ ----- --<br>----- ----- ---------- --- --- ------ ------ ---- -- ------<br>------- --- ------ ----- --- ---- ------- -- ---- --- --<br>------- ------,209631.76499999827,209630.6849999819,209332.297,209332.79999997467,209339.343,209644.997,,28,rate.
screen,html.Screen,2_1_1_1_29,2021-04-24T14:54:41.066Z,,,,,,,,,,,,,,,,,54,,,,,,,,,,,,,,554.4879999900877,,response,,,,100,,,,,,,Space,keypress(Space),,,,,,,,-- --- ---- --- ------ ----- ------- ---- -- --- ------- --<br>------- ---------- ------ -- ----- -- ----- -- ---- ------<br>--- ----- --- --- ------ -------- ----- The ------ ----- --<br>----- ----- ---------- --- --- ------ ------ ---- -- ------<br>------- --- ------ ----- --- ---- ------- -- ---- --- --<br>------- ------,210200.5299999728,210199.4849999901,209622.985,209632.05499999458,209644.997,210207.306,,29,The
screen,html.Screen,2_1_1_1_30,2021-04-24T14:54:41.357Z,,,,,,,,,,,,,,,,,54,,,,,,,,,,,,,,282.90899999797693,,response,,,,100,,,,,,,Space,keypress(Space),,,,,,,,-- --- ---- --- ------ ----- ------- ---- -- --- ------- --<br>------- ---------- ------ -- ----- -- ----- -- ---- ------<br>--- ----- --- --- ------ -------- ----- --- market ----- --<br>----- ----- ---------- --- --- ------ ------ ---- -- ------<br>------- --- ------ ----- --- ---- ------- -- ---- --- --<br>------- ------,210491.32500000997,210490.214999998,210195.136,210200.81499998923,210207.306,210498.174,,30,market
screen,html.Screen,2_1_1_1_31,2021-04-24T14:54:41.647Z,,,,,,,,,,,,,,,,,54,,,,,,,,,,,,,,282.7759999857517,,response,,,,100,,,,,,,Space,keypress(Space),,,,,,,,-- --- ---- --- ------ ----- ------- ---- -- --- ------- --<br>------- ---------- ------ -- ----- -- ----- -- ---- ------<br>--- ----- --- --- ------ -------- ----- --- ------ value --<br>----- ----- ---------- --- --- ------ ------ ---- -- ------<br>------- --- ------ ----- --- ---- ------- -- ---- --- --<br>------- ------,210782.1399999666,210780.94999998575,210491.054,210491.61999998614,210498.174,210789.248,,31,value
screen,html.Screen,2_1_1_1_32,2021-04-24T14:54:41.931Z,,,,,,,,,,,,,,,,,54,,,,,,,,,,,,,,275.8670000048878,,response,,,,100,,,,,,,Space,keypress(Space),,,,,,,,-- --- ---- --- ------ ----- ------- ---- -- --- ------- --<br>------- ---------- ------ -- ----- -- ----- -- ---- ------<br>--- ----- --- --- ------ -------- ----- --- ------ ----- of<br>----- ----- ---------- --- --- ------ ------ ---- -- ------<br>------- --- ------ ----- --- ---- ------- -- ---- --- --<br>------- ------,211066.17499998538,211065.11500000488,210781.894,210782.44499996072,210789.248,211072.964,,32,of
screen,html.Screen,2_1_1_1_33,2021-04-24T14:54:42.428Z,,,,,,,,,,,,,,,,,54,,,,,,,,,,,,,,488.2859999697248,,response,,,,100,,,,,,,Space,keypress(Space),,,,,,,,-- --- ---- --- ------ ----- ------- ---- -- --- ------- --<br>------- ---------- ------ -- ----- -- ----- -- ---- ------<br>--- ----- --- --- ------ -------- ----- --- ------ ----- --<br>these ----- ---------- --- --- ------ ------ ---- -- ------<br>------- --- ------ ----- --- ---- ------- -- ---- --- --<br>------- ------,211562.3149999883,211561.24999996973,211056.271,211066.4949999773,211072.964,211571.251,,33,these
screen,html.Screen,2_1_1_1_34,2021-04-24T14:54:42.674Z,,,,,,,,,,,,,,,,,54,,,,,,,,,,,,,,235.96399997890694,,response,,,,100,,,,,,,Space,keypress(Space),,,,,,,,-- --- ---- --- ------ ----- ------- ---- -- --- ------- --<br>------- ---------- ------ -- ----- -- ----- -- ---- ------<br>--- ----- --- --- ------ -------- ----- --- ------ ----- --<br>----- bonds ---------- --- --- ------ ------ ---- -- ------<br>------- --- ------ ----- --- ---- ------- -- ---- --- --<br>------- ------,211808.28499997733,211807.2149999789,211556.754,211562.63499998022,211571.251,211815.159,,34,bonds
screen,html.Screen,2_1_1_1_35,2021-04-24T14:54:42.943Z,,,,,,,,,,,,,,,,,54,,,,,,,,,,,,,,261.16599997269805,,response,,,,100,,,,,,,Space,keypress(Space),,,,,,,,"-- --- ---- --- ------ ----- ------- ---- -- --- ------- --<br>------- ---------- ------ -- ----- -- ----- -- ---- ------<br>--- ----- --- --- ------ -------- ----- --- ------ ----- --<br>----- ----- plummeted, --- --- ------ ------ ---- -- ------<br>------- --- ------ ----- --- ---- ------- -- ---- --- --<br>------- ------",212077.42499996675,212076.3249999727,211804.843,211808.59500000952,211815.159,212084.152,,35,"plummeted,"
screen,html.Screen,2_1_1_1_36,2021-04-24T14:54:43.288Z,,,,,,,,,,,,,,,,,54,,,,,,,,,,,,,,337.1029999938328,,response,,,,100,,,,,,,Space,keypress(Space),,,,,,,,-- --- ---- --- ------ ----- ------- ---- -- --- ------- --<br>------- ---------- ------ -- ----- -- ----- -- ---- ------<br>--- ----- --- --- ------ -------- ----- --- ------ ----- --<br>----- ----- ---------- and --- ------ ------ ---- -- ------<br>------- --- ------ ----- --- ---- ------- -- ---- --- --<br>------- ------,212422.38999996334,212421.25499999383,212065.496,212077.71499996306,212084.152,212429.132,,36,and
screen,html.Screen,2_1_1_1_37,2021-04-24T14:54:43.547Z,,,,,,,,,,,,,,,,,54,,,,,,,,,,,,,,251.8030000112194,,response,,,,100,,,,,,,Space,keypress(Space),,,,,,,,-- --- ---- --- ------ ----- ------- ---- -- --- ------- --<br>------- ---------- ------ -- ----- -- ----- -- ---- ------<br>--- ----- --- --- ------ -------- ----- --- ------ ----- --<br>----- ----- ---------- --- the ------ ------ ---- -- ------<br>------- --- ------ ----- --- ---- ------- -- ---- --- --<br>------- ------,212682.02000000747,212680.93500001123,212417.93,212422.68000001786,212429.132,212696.195,,37,the
screen,html.Screen,2_1_1_1_38,2021-04-24T14:54:43.823Z,,,,,,,,,,,,,,,,,54,,,,,,,,,,,,,,260.00999999494525,,response,,,,100,,,,,,,Space,keypress(Space),,,,,,,,-- --- ---- --- ------ ----- ------- ---- -- --- ------- --<br>------- ---------- ------ -- ----- -- ----- -- ---- ------<br>--- ----- --- --- ------ -------- ----- --- ------ ----- --<br>----- ----- ---------- --- --- market ------ ---- -- ------<br>------- --- ------ ----- --- ---- ------- -- ---- --- --<br>------- ------,212957.25500001572,212956.20499999495,212679.553,212682.32999998145,212696.195,212964.095,,38,market
screen,html.Screen,2_1_1_1_39,2021-04-24T14:54:44.082Z,,,,,,,,,,,,,,,,,54,,,,,,,,,,,,,,251.10499997690204,,response,,,,100,,,,,,,Space,keypress(Space),,,,,,,,-- --- ---- --- ------ ----- ------- ---- -- --- ------- --<br>------- ---------- ------ -- ----- -- ----- -- ---- ------<br>--- ----- --- --- ------ -------- ----- --- ------ ----- --<br>----- ----- ---------- --- --- ------ became ---- -- ------<br>------- --- ------ ----- --- ---- ------- -- ---- --- --<br>------- ------,213216.29999997094,213215.1999999769,212946.202,212957.53999997396,212964.095,213223.078,,39,became
screen,html.Screen,2_1_1_1_40,2021-04-24T14:54:44.381Z,,,,,,,,,,,,,,,,,54,,,,,,,,,,,,,,291.11200001623365,,response,,,,100,,,,,,,Space,keypress(Space),,,,,,,,-- --- ---- --- ------ ----- ------- ---- -- --- ------- --<br>------- ---------- ------ -- ----- -- ----- -- ---- ------<br>--- ----- --- --- ------ -------- ----- --- ------ ----- --<br>----- ----- ---------- --- --- ------ ------ wary -- ------<br>------- --- ------ ----- --- ---- ------- -- ---- --- --<br>------- ------,213515.2399999788,213514.19000001624,213214.478,213216.61999996286,213223.078,213522.088,,40,wary
screen,html.Screen,2_1_1_1_41,2021-04-24T14:54:44.729Z,,,,,,,,,,,,,,,,,54,,,,,,,,,,,,,,341.0219999765977,,response,,,,100,,,,,,,Space,keypress(Space),,,,,,,,-- --- ---- --- ------ ----- ------- ---- -- --- ------- --<br>------- ---------- ------ -- ----- -- ----- -- ---- ------<br>--- ----- --- --- ------ -------- ----- --- ------ ----- --<br>----- ----- ---------- --- --- ------ ------ ---- of ------<br>------- --- ------ ----- --- ---- ------- -- ---- --- --<br>------- ------,213864.14499999955,213863.1099999766,213506.799,213515.5350000132,213522.088,213870.932,,41,of
screen,html.Screen,2_1_1_1_42,2021-04-24T14:54:45.036Z,,,,,,,,,,,,,,,,,54,,,,,,,,,,,,,,298.67799998263945,,response,,,,100,,,,,,,Space,keypress(Space),,,,,,,,-- --- ---- --- ------ ----- ------- ---- -- --- ------- --<br>------- ---------- ------ -- ----- -- ----- -- ---- ------<br>--- ----- --- --- ------ -------- ----- --- ------ ----- --<br>----- ----- ---------- --- --- ------ ------ ---- -- French<br>------- --- ------ ----- --- ---- ------- -- ---- --- --<br>------- ------,214170.6600000034,214169.60999998264,213855.805,213864.44999999367,213870.932,214184.583,,42,French
screen,html.Screen,2_1_1_1_43,2021-04-24T14:54:45.510Z,,,,,,,,,,,,,,,,,54,,,,,,,,,,,,,,458.73699997374206,,response,,,,100,,,,,,,Space,keypress(Space),,,,,,,,-- --- ---- --- ------ ----- ------- ---- -- --- ------- --<br>------- ---------- ------ -- ----- -- ----- -- ---- ------<br>--- ----- --- --- ------ -------- ----- --- ------ ----- --<br>----- ----- ---------- --- --- ------ ------ ---- -- ------<br>credit. --- ------ ----- --- ---- ------- -- ---- --- --<br>------- ------,214644.54999996815,214643.31999997376,214171.337,214170.94999999972,214184.583,214652.115,,43,credit.
screen,html.Screen,2_1_1_1_44,2021-04-24T14:54:45.769Z,,,,,,,,,,,,,,,,,54,,,,,,,,,,,,,,250.9199999666307,,response,,,,100,,,,,,,Space,keypress(Space),,,,,,,,-- --- ---- --- ------ ----- ------- ---- -- --- ------- --<br>------- ---------- ------ -- ----- -- ----- -- ---- ------<br>--- ----- --- --- ------ -------- ----- --- ------ ----- --<br>----- ----- ---------- --- --- ------ ------ ---- -- ------<br>------- The ------ ----- --- ---- ------- -- ---- --- --<br>------- ------,214904.0699999896,214903.03499996662,214634.669,214644.8499999824,214652.115,214910.87,,44,The
screen,html.Screen,2_1_1_1_45,2021-04-24T14:54:46.017Z,,,,,,,,,,,,,,,,,54,,,,,,,,,,,,,,239.4299999793293,,response,,,,100,,,,,,,Space,keypress(Space),,,,,,,,-- --- ---- --- ------ ----- ------- ---- -- --- ------- --<br>------- ---------- ------ -- ----- -- ----- -- ---- ------<br>--- ----- --- --- ------ -------- ----- --- ------ ----- --<br>----- ----- ---------- --- --- ------ ------ ---- -- ------<br>------- --- French ----- --- ---- ------- -- ---- --- --<br>------- ------,215151.39000001363,215150.29999997932,214902.48,214904.37999996357,214910.87,215158.199,,45,French
screen,html.Screen,2_1_1_1_46,2021-04-24T14:54:46.252Z,,,,,,,,,,,,,,,,,54,,,,,,,,,,,,,,227.03599999428843,,response,,,,100,,,,,,,Space,keypress(Space),,,,,,,,-- --- ---- --- ------ ----- ------- ---- -- --- ------- --<br>------- ---------- ------ -- ----- -- ----- -- ---- ------<br>--- ----- --- --- ------ -------- ----- --- ------ ----- --<br>----- ----- ---------- --- --- ------ ------ ---- -- ------<br>------- --- ------ state --- ---- ------- -- ---- --- --<br>------- ------,215386.33000000846,215385.23499999428,215144.59,215151.6849999898,215158.199,215393.171,,46,state
screen,html.Screen,2_1_1_1_47,2021-04-24T14:54:46.515Z,,,,,,,,,,,,,,,,,54,,,,,,,,,,,,,,255.86400000946014,,response,,,,100,,,,,,,Space,keypress(Space),,,,,,,,-- --- ---- --- ------ ----- ------- ---- -- --- ------- --<br>------- ---------- ------ -- ----- -- ----- -- ---- ------<br>--- ----- --- --- ------ -------- ----- --- ------ ----- --<br>----- ----- ---------- --- --- ------ ------ ---- -- ------<br>------- --- ------ ----- was ---- ------- -- ---- --- --<br>------- ------,215650.08499997202,215649.03500000946,215375.254,215386.65000000037,215393.171,215657.182,,47,was
screen,html.Screen,2_1_1_1_48,2021-04-24T14:54:46.975Z,,,,,,,,,,,,,,,,,54,,,,,,,,,,,,,,450.97800000340794,,response,,,,100,,,,,,,Space,keypress(Space),,,,,,,,-- --- ---- --- ------ ----- ------- ---- -- --- ------- --<br>------- ---------- ------ -- ----- -- ----- -- ---- ------<br>--- ----- --- --- ------ -------- ----- --- ------ ----- --<br>----- ----- ---------- --- --- ------ ------ ---- -- ------<br>------- --- ------ ----- --- left ------- -- ---- --- --<br>------- ------,216109.23999996157,216108.1600000034,215643.511,215650.37499996834,215657.182,216115.98,,48,left
screen,html.Screen,2_1_1_1_49,2021-04-24T14:54:47.220Z,,,,,,,,,,,,,,,,,54,,,,,,,,,,,,,,237.48000001299079,,response,,,,100,,,,,,,Space,keypress(Space),,,,,,,,-- --- ---- --- ------ ----- ------- ---- -- --- ------- --<br>------- ---------- ------ -- ----- -- ----- -- ---- ------<br>--- ----- --- --- ------ -------- ----- --- ------ ----- --<br>----- ----- ---------- --- --- ------ ------ ---- -- ------<br>------- --- ------ ----- --- ---- without -- ---- --- --<br>------- ------,216354.5499999891,216353.460000013,216107.592,216109.53499999596,216115.98,216361.352,,49,without
screen,html.Screen,2_1_1_1_50,2021-04-24T14:54:47.601Z,,,,,,,,,,,,,,,,,54,,,,,,,,,,,,,,372.8079999926849,,response,,,,100,,,,,,,Space,keypress(Space),,,,,,,,-- --- ---- --- ------ ----- ------- ---- -- --- ------- --<br>------- ---------- ------ -- ----- -- ----- -- ---- ------<br>--- ----- --- --- ------ -------- ----- --- ------ ----- --<br>----- ----- ---------- --- --- ------ ------ ---- -- ------<br>------- --- ------ ----- --- ---- ------- an ---- --- --<br>------- ------,216735.24000000907,216734.1599999927,216349.718,216354.83500000555,216361.352,216753.125,,50,an
screen,html.Screen,2_1_1_1_51,2021-04-24T14:54:47.864Z,,,,,,,,,,,,,,,,,54,,,,,,,,,,,,,,244.09499996108934,,response,,,,100,,,,,,,Space,keypress(Space),,,,,,,,-- --- ---- --- ------ ----- ------- ---- -- --- ------- --<br>------- ---------- ------ -- ----- -- ----- -- ---- ------<br>--- ----- --- --- ------ -------- ----- --- ------ ----- --<br>----- ----- ---------- --- --- ------ ------ ---- -- ------<br>------- --- ------ ----- --- ---- ------- -- easy --- --<br>------- ------,216998.31499997526,216997.2199999611,216728.407,216735.53000000538,216753.125,217005.125,,51,easy
screen,html.Screen,2_1_1_1_52,2021-04-24T14:54:48.422Z,,,,,,,,,,,,,,,,,54,,,,,,,,,,,,,,551.0099999625236,,response,,,,100,,,,,,,Space,keypress(Space),,,,,,,,-- --- ---- --- ------ ----- ------- ---- -- --- ------- --<br>------- ---------- ------ -- ----- -- ----- -- ---- ------<br>--- ----- --- --- ------ -------- ----- --- ------ ----- --<br>----- ----- ---------- --- --- ------ ------ ---- -- ------<br>------- --- ------ ----- --- ---- ------- -- ---- way --<br>------- ------,217557.18000000343,217556.13499996252,216986.802,216998.61999996938,217005.125,217564.016,,52,way
screen,html.Screen,2_1_1_1_53,2021-04-24T14:54:48.682Z,,,,,,,,,,,,,,,,,54,,,,,,,,,,,,,,251.19900000962662,,response,,,,100,,,,,,,Space,keypress(Space),,,,,,,,-- --- ---- --- ------ ----- ------- ---- -- --- ------- --<br>------- ---------- ------ -- ----- -- ----- -- ---- ------<br>--- ----- --- --- ------ -------- ----- --- ------ ----- --<br>----- ----- ---------- --- --- ------ ------ ---- -- ------<br>------- --- ------ ----- --- ---- ------- -- ---- --- of<br>------- ------,217816.3099999656,217815.21500000963,217555.445,217557.48499999754,217564.016,217831.122,,53,of
screen,html.Screen,2_1_1_1_54,2021-04-24T14:54:49.217Z,,,,,,,,,,,,,,,,,54,,,,,,,,,,,,,,519.8429999905347,,response,,,,100,,,,,,,Space,keypress(Space),,,,,,,,-- --- ---- --- ------ ----- ------- ---- -- --- ------- --<br>------- ---------- ------ -- ----- -- ----- -- ---- ------<br>--- ----- --- --- ------ -------- ----- --- ------ ----- --<br>----- ----- ---------- --- --- ------ ------ ---- -- ------<br>------- --- ------ ----- --- ---- ------- -- ---- --- --<br>raising ------,218352.0000000135,218350.96499999054,217814.4,217816.59499998204,217831.122,218375.871,,54,raising
screen,html.Screen,2_1_1_1_55,2021-04-24T14:54:49.777Z,,,,,,,,,,,,,,,,,54,,,,,,,,,,,,,,534.413999990822,,response,,,,100,,,,,,,Space,keypress(Space),,,,,,,,-- --- ---- --- ------ ----- ------- ---- -- --- ------- --<br>------- ---------- ------ -- ----- -- ----- -- ---- ------<br>--- ----- --- --- ------ -------- ----- --- ------ ----- --<br>----- ----- ---------- --- --- ------ ------ ---- -- ------<br>------- --- ------ ----- --- ---- ------- -- ---- --- --<br>------- money.,218911.38999996474,218910.28499999084,218359.147,218352.30999998748,218375.871,218918.862,,55,money.
Item 100,flow.Loop,2_1_1_1,2021-04-24T14:54:49.777Z,,,,,,,,,,,,,,,,,,,,,,,,,,,,,,,22130.189999990835,,completion,,,,,C,,,,,,,,,,,silence,,,,,218911.88500000862,218910.28499999084,196763.706,196765.1949999854,196780.095,218918.862,,,
Question 1,html.Screen,2_1_1_2,2021-04-24T14:54:54.088Z,,,,,,,,,,,,,,,,,,,,,,,,,,,,true,TRUE,,4301.657999973482,,response,,,,100,C,,,,,,TRUE,click #choice-1,,,,silence,,,,,223222.53500000807,223220.51999997348,218909.257,218912.12499997346,218918.862,223226.021,,,
Question 2,html.Screen,2_1_1_3,2021-04-24T14:54:56.601Z,,,,,,,,,,,,,,,,,,,,,,,,,,,,true,FALSE,,2508.324000004388,,response,,,,100,C,,,,,,FALSE,click #choice-2,,,,silence,,,,,225736.0500000068,225734.3450000044,223208.055,223222.85499999998,223226.021,225739.918,,,
Item 100,flow.Sequence,2_1_1,2021-04-24T14:54:56.602Z,,,,,,,,,,,,,,,,,,,,,,,,,,,,,,,38948.1460000044,,completion,,,,,,,,,,,,,,,,,,,,,225736.5250000148,225734.3450000044,186769.772,186776.669999992,186786.199,225739.918,,,
End of Practice,html.Page,2_1_2,2021-04-24T14:55:02.008Z,,,,,,,,,,,,,,,,,,,,,,,,,,,,,,,5402.516999987012,,form submission,,,,,,,,,,,,,,,,,,,,,231142.9749999661,231142.43499998702,225728.11,225736.75999999978,225739.918,231146.015,,,
Practice,flow.Sequence,2_1,2021-04-24T14:55:02.009Z,,,,,,,,,,,,,,,,,,,,,,,,,,,,,,,80812.476999987,,completion,,,,,,,,,,,,,,,,,,,,,231143.4499999741,231142.43499998702,150313.557,150317.88499996765,150329.958,231146.015,,,
Trap_instruction,html.Page,2_2_0,2021-04-24T14:55:09.462Z,,,,,,,,,,,,,,,,,,,,,,,,,,,,,,,7449.774999992107,,form submission,,,,,,,,,,,,,,,,,,,,,238596.27999999793,238595.78999999212,231126.163,231143.74999998836,231146.015,238632.938,,,
trap_trial,html.Screen,2_2_1,2021-04-24T14:55:13.243Z,,,,,,,,,,,,,,,,,,,,,,,,,,,,true,1,,3742.6419999926293,,response,,,,,,,,,,,1,click #choice-1,,,,,,,,,242377.42999999318,242375.57999999262,238592.469,238596.55000001658,238632.938,242381.103,,,
end of trap trial,html.Page,2_2_2,2021-04-24T14:55:15.734Z,,,,,,,,,,,,,,,,,,,,,,,,,,,,,,,2486.791999973939,,form submission,,,,,,,,,,,,,,,,,,,,,244868.35499998415,244867.89499997394,242364.291,242377.76000000304,242381.103,244871.172,,,
Trap 1,flow.Sequence,2_2,2021-04-24T14:55:15.734Z,,,,,,,,,,,,,,,,,,,,,,,,,,,,,,,13721.879999973928,,completion,,,,,,,,,,,,,,,,,,,,,244868.77499998081,244867.89499997394,231126.163,231143.66000000155,231146.015,244871.172,,,
Standby,html.Page,2_3_0,2021-04-24T14:55:23.715Z,,,,,,,,,,,,,,,,,,,,,,,,,,,,,,,7993.917000000016,,timeout,,,,,,,,,,,,,,,,,,,,,252849.78499996942,252848.571,244857.472,244869.1000000108,244871.172,252865.089,,,
Holding screen,html.Screen,2_3_1_0_0,2021-04-24T14:55:30.717Z,,,,,,,,,,,,,,,,,,,,,,,,,,,,,,,7002.239000000001,,timeout,,,,,,,,,,,,,,,,,,,,,259851.87000001315,259850.774,252848.571,252850.23499996169,252865.089,259867.328,,,
screen,html.Screen,2_3_1_0_1_0,2021-04-24T14:55:32.876Z,,,,,,,,,,,,,,,,,2,,,,,,,,,,,,,,2141.8719999713066,,response,,,,1,C,,,,,,Space,keypress(Space),,,,instrumental,,,,Two ---- ------ --- ------- ---------- ------- ----------<br>--- --------- --- ----------- ------- ----- ------- ---<br>--------- ---- -- --- ---- -- --------- -- ---- -------<br>-- --------- ------ --- ----- ------ ---- --- --------- --<br>------ - ---- -- --- ----------- ------- ---- ----- -----<br>--- -------- - ------ ---- -- ----- ---- --- --- -----------<br>-- -------,262010.68999996642,262009.19999997132,259850.774,259852.42000001017,259867.328,262015.864,,0,Two
screen,html.Screen,2_3_1_0_1_1,2021-04-24T14:55:33.274Z,,,,,,,,,,,,,,,,,2,,,,,,,,,,,,,,391.9709999617771,,response,,,,1,C,,,,,,Space,keypress(Space),,,,instrumental,,,,--- days ------ --- ------- ---------- ------- ----------<br>--- --------- --- ----------- ------- ----- ------- ---<br>--------- ---- -- --- ---- -- --------- -- ---- -------<br>-- --------- ------ --- ----- ------ ---- --- --------- --<br>------ - ---- -- --- ----------- ------- ---- ----- -----<br>--- -------- - ------ ---- -- ----- ---- --- --- -----------<br>-- -------,262409.1049999697,262407.8349999618,262001.181,262011.04000001214,262015.864,262421.262,,1,days
screen,html.Screen,2_3_1_0_1_2,2021-04-24T14:55:33.483Z,,,,,,,,,,,,,,,,,2,,,,,,,,,,,,,,195.56299997551832,,response,,,,1,C,,,,,,Space,keypress(Space),,,,instrumental,,,,"--- ---- later, --- ------- ---------- ------- ----------<br>--- --------- --- ----------- ------- ----- ------- ---<br>--------- ---- -- --- ---- -- --------- -- ---- -------<br>-- --------- ------ --- ----- ------ ---- --- --------- --<br>------ - ---- -- --- ----------- ------- ---- ----- -----<br>--- -------- - ------ ---- -- ----- ---- --- --- -----------<br>-- -------",262617.9049999919,262616.8249999755,262399.513,262409.38999998616,262421.262,262621.102,,2,"later,"
screen,html.Screen,2_3_1_0_1_3,2021-04-24T14:55:34.052Z,,,,,,,,,,,,,,,,,2,,,,,,,,,,,,,,564.947999960219,,response,,,,1,C,,,,,,Space,keypress(Space),,,,instrumental,,,,--- ---- ------ the ------- ---------- ------- ----------<br>--- --------- --- ----------- ------- ----- ------- ---<br>--------- ---- -- --- ---- -- --------- -- ---- -------<br>-- --------- ------ --- ----- ------ ---- --- --------- --<br>------ - ---- -- --- ----------- ------- ---- ----- -----<br>--- -------- - ------ ---- -- ----- ---- --- --- -----------<br>-- -------,263187.099999981,263186.04999996023,262604.851,262618.1949999882,262621.102,263205.008,,3,the
screen,html.Screen,2_3_1_0_1_4,2021-04-24T14:55:34.292Z,,,,,,,,,,,,,,,,,2,,,,,,,,,,,,,,220.36200001178076,,response,,,,1,C,,,,,,Space,keypress(Space),,,,instrumental,,,,--- ---- ------ --- British ---------- ------- ----------<br>--- --------- --- ----------- ------- ----- ------- ---<br>--------- ---- -- --- ---- -- --------- -- ---- -------<br>-- --------- ------ --- ----- ------ ---- --- --------- --<br>------ - ---- -- --- ----------- ------- ---- ----- -----<br>--- -------- - ------ ---- -- ----- ---- --- --- -----------<br>-- -------,263426.63000000175,263425.37000001175,263171.612,263187.3800000176,263205.008,263433.41,,4,British
screen,html.Screen,2_3_1_0_1_5,2021-04-24T14:55:34.551Z,,,,,,,,,,,,,,,,,2,,,,,,,,,,,,,,250.91000000032363,,response,,,,1,C,,,,,,Space,keypress(Space),,,,instrumental,,,,--- ---- ------ --- ------- astronomer ------- ----------<br>--- --------- --- ----------- ------- ----- ------- ---<br>--------- ---- -- --- ---- -- --------- -- ---- -------<br>-- --------- ------ --- ----- ------ ---- --- --------- --<br>------ - ---- -- --- ----------- ------- ---- ----- -----<br>--- -------- - ------ ---- -- ----- ---- --- --- -----------<br>-- -------,263685.46499998774,263684.3200000003,263421.391,263426.91999999806,263433.41,263692.301,,5,astronomer
screen,html.Screen,2_3_1_0_1_6,2021-04-24T14:55:34.824Z,,,,,,,,,,,,,,,,,2,,,,,,,,,,,,,,265.5939999995753,,response,,,,1,C,,,,,,Space,keypress(Space),,,,instrumental,,,,--- ---- ------ --- ------- ---------- Richard ----------<br>--- --------- --- ----------- ------- ----- ------- ---<br>--------- ---- -- --- ---- -- --------- -- ---- -------<br>-- --------- ------ --- ----- ------ ---- --- --------- --<br>------ - ---- -- --- ----------- ------- ---- ----- -----<br>--- -------- - ------ ---- -- ----- ---- --- --- -----------<br>-- -------,263958.9599999599,263957.89499999955,263683.473,263685.75499998406,263692.301,263965.808,,6,Richard
screen,html.Screen,2_3_1_0_1_7,2021-04-24T14:55:35.334Z,,,,,,,,,,,,,,,,,2,,,,,,,,,,,,,,502.32699997368036,,response,,,,1,C,,,,,,Space,keypress(Space),,,,instrumental,,,,--- ---- ------ --- ------- ---------- ------- Carrington<br>--- --------- --- ----------- ------- ----- ------- ---<br>--------- ---- -- --- ---- -- --------- -- ---- -------<br>-- --------- ------ --- ----- ------ ---- --- --------- --<br>------ - ---- -- --- ----------- ------- ---- ----- -----<br>--- -------- - ------ ---- -- ----- ---- --- --- -----------<br>-- -------,264469.1950000124,264468.1349999737,263959.027,263959.2549999943,263965.808,264475.976,,7,Carrington
screen,html.Screen,2_3_1_0_1_8,2021-04-24T14:55:35.675Z,,,,,,,,,,,,,,,,,2,,,,,,,,,,,,,,333.13399997283705,,response,,,,1,C,,,,,,Space,keypress(Space),,,,instrumental,,,,--- ---- ------ --- ------- ---------- ------- ----------<br>was --------- --- ----------- ------- ----- ------- ---<br>--------- ---- -- --- ---- -- --------- -- ---- -------<br>-- --------- ------ --- ----- ------ ---- --- --------- --<br>------ - ---- -- --- ----------- ------- ---- ----- -----<br>--- -------- - ------ ---- -- ----- ---- --- --- -----------<br>-- -------,264810.2000000072,264809.10999997286,264466.111,264469.47999997064,264475.976,264817.174,,8,was
screen,html.Screen,2_3_1_0_1_9,2021-04-24T14:55:36.034Z,,,,,,,,,,,,,,,,,2,,,,,,,,,,,,,,350.82099996705074,,response,,,,1,C,,,,,,Space,keypress(Space),,,,instrumental,,,,--- ---- ------ --- ------- ---------- ------- ----------<br>--- observing --- ----------- ------- ----- ------- ---<br>--------- ---- -- --- ---- -- --------- -- ---- -------<br>-- --------- ------ --- ----- ------ ---- --- --------- --<br>------ - ---- -- --- ----------- ------- ---- ----- -----<br>--- -------- - ------ ---- -- ----- ---- --- --- -----------<br>-- -------,265169.2000000039,265167.99499996705,264809.62,264810.514999961,264817.174,265176.152,,9,observing
screen,html.Screen,2_3_1_0_1_10,2021-04-24T14:55:36.470Z,,,,,,,,,,,,,,,,,2,,,,,,,,,,,,,,427.0029999606777,,response,,,,1,C,,,,,,Space,keypress(Space),,,,instrumental,,,,--- ---- ------ --- ------- ---------- ------- ----------<br>--- --------- the ----------- ------- ----- ------- ---<br>--------- ---- -- --- ---- -- --------- -- ---- -------<br>-- --------- ------ --- ----- ------ ---- --- --------- --<br>------ - ---- -- --- ----------- ------- ---- ----- -----<br>--- -------- - ------ ---- -- ----- ---- --- --- -----------<br>-- -------,265604.2700000107,265603.1549999607,265167.262,265169.5849999669,265176.152,265617.497,,10,the
screen,html.Screen,2_3_1_0_1_11,2021-04-24T14:55:36.755Z,,,,,,,,,,,,,,,,,2,,,,,,,,,,,,,,271.38299998408183,,response,,,,1,C,,,,,,Space,keypress(Space),,,,instrumental,,,,--- ---- ------ --- ------- ---------- ------- ----------<br>--- --------- --- interesting ------- ----- ------- ---<br>--------- ---- -- --- ---- -- --------- -- ---- -------<br>-- --------- ------ --- ----- ------ ---- --- --------- --<br>------ - ---- -- --- ----------- ------- ---- ----- -----<br>--- -------- - ------ ---- -- ----- ---- --- --- -----------<br>-- -------,265890.0450000074,265888.87999998406,265593.231,265604.5649999869,265617.497,265896.964,,11,interesting
screen,html.Screen,2_3_1_0_1_12,2021-04-24T14:55:37.134Z,,,,,,,,,,,,,,,,,2,,,,,,,,,,,,,,371.04599999979837,,response,,,,1,C,,,,,,Space,keypress(Space),,,,instrumental,,,,--- ---- ------ --- ------- ---------- ------- ----------<br>--- --------- --- ----------- sunspot ----- ------- ---<br>--------- ---- -- --- ---- -- --------- -- ---- -------<br>-- --------- ------ --- ----- ------ ---- --- --------- --<br>------ - ---- -- --- ----------- ------- ---- ----- -----<br>--- -------- - ------ ---- -- ----- ---- --- --- -----------<br>-- -------,266269.07499996014,266268.0099999998,265884.386,265890.3949999949,265896.964,266275.913,,12,sunspot
screen,html.Screen,2_3_1_0_1_13,2021-04-24T14:55:37.443Z,,,,,,,,,,,,,,,,,2,,,,,,,,,,,,,,301.22199997043936,,response,,,,1,C,,,,,,Space,keypress(Space),,,,instrumental,,,,--- ---- ------ --- ------- ---------- ------- ----------<br>--- --------- --- ----------- ------- group ------- ---<br>--------- ---- -- --- ---- -- --------- -- ---- -------<br>-- --------- ------ --- ----- ------ ---- --- --------- --<br>------ - ---- -- --- ----------- ------- ---- ----- -----<br>--- -------- - ------ ---- -- ----- ---- --- --- -----------<br>-- -------,266578.19500000915,266577.13499997044,266264.008,266269.3999999901,266275.913,266580.979,,13,group
screen,html.Screen,2_3_1_0_1_14,2021-04-24T14:55:37.904Z,,,,,,,,,,,,,,,,,2,,,,,,,,,,,,,,456.9959999847342,,response,,,,1,C,,,,,,Space,keypress(Space),,,,instrumental,,,,--- ---- ------ --- ------- ---------- ------- ----------<br>--- --------- --- ----------- ------- ----- through ---<br>--------- ---- -- --- ---- -- --------- -- ---- -------<br>-- --------- ------ --- ----- ------ ---- --- --------- --<br>------ - ---- -- --- ----------- ------- ---- ----- -----<br>--- -------- - ------ ---- -- ----- ---- --- --- -----------<br>-- -------,267039.1599999857,267037.9749999847,266576.063,266578.50000000326,266580.979,267046.151,,14,through
screen,html.Screen,2_3_1_0_1_15,2021-04-24T14:55:38.347Z,,,,,,,,,,,,,,,,,2,,,,,,,,,,,,,,434.0189999952563,,response,,,,1,C,,,,,,Space,keypress(Space),,,,instrumental,,,,--- ---- ------ --- ------- ---------- ------- ----------<br>--- --------- --- ----------- ------- ----- ------- his<br>--------- ---- -- --- ---- -- --------- -- ---- -------<br>-- --------- ------ --- ----- ------ ---- --- --------- --<br>------ - ---- -- --- ----------- ------- ---- ----- -----<br>--- -------- - ------ ---- -- ----- ---- --- --- -----------<br>-- -------,267481.2749999692,267480.16999999527,267031.624,267039.5150000113,267046.151,267488.045,,15,his
screen,html.Screen,2_3_1_0_1_16,2021-04-24T14:55:38.604Z,,,,,,,,,,,,,,,,,2,,,,,,,,,,,,,,250.0150000033318,,response,,,,1,C,,,,,,Space,keypress(Space),,,,instrumental,,,,--- ---- ------ --- ------- ---------- ------- ----------<br>--- --------- --- ----------- ------- ----- ------- ---<br>telescope ---- -- --- ---- -- --------- -- ---- -------<br>-- --------- ------ --- ----- ------ ---- --- --------- --<br>------ - ---- -- --- ----------- ------- ---- ----- -----<br>--- -------- - ------ ---- -- ----- ---- --- --- -----------<br>-- -------,267739.179999975,267738.0600000033,267479.881,267481.5749999834,267488.045,267754.867,,16,telescope
screen,html.Screen,2_3_1_0_1_17,2021-04-24T14:55:39.012Z,,,,,,,,,,,,,,,,,2,,,,,,,,,,,,,,390.50299998378614,,response,,,,1,C,,,,,,Space,keypress(Space),,,,instrumental,,,,--- ---- ------ --- ------- ---------- ------- ----------<br>--- --------- --- ----------- ------- ----- ------- ---<br>--------- when -- --- ---- -- --------- -- ---- -------<br>-- --------- ------ --- ----- ------ ---- --- --------- --<br>------ - ---- -- --- ----------- ------- ---- ----- -----<br>--- -------- - ------ ---- -- ----- ---- --- --- -----------<br>-- -------,268146.3549999753,268145.3699999838,267738.466,267739.49999996694,267754.867,268157.543,,17,when
screen,html.Screen,2_3_1_0_1_18,2021-04-24T14:55:39.205Z,,,,,,,,,,,,,,,,,2,,,,,,,,,,,,,,180.55200001370395,,response,,,,1,C,,,,,,Space,keypress(Space),,,,instrumental,,,,--- ---- ------ --- ------- ---------- ------- ----------<br>--- --------- --- ----------- ------- ----- ------- ---<br>--------- ---- he --- ---- -- --------- -- ---- -------<br>-- --------- ------ --- ----- ------ ---- --- --------- --<br>------ - ---- -- --- ----------- ------- ---- ----- -----<br>--- -------- - ------ ---- -- ----- ---- --- --- -----------<br>-- -------,268339.39500001725,268338.0950000137,268143.859,268146.6350000119,268157.543,268346.406,,18,he
screen,html.Screen,2_3_1_0_1_19,2021-04-24T14:55:39.401Z,,,,,,,,,,,,,,,,,2,,,,,,,,,,,,,,188.57899997656932,,response,,,,1,C,,,,,,Space,keypress(Space),,,,instrumental,,,,--- ---- ------ --- ------- ---------- ------- ----------<br>--- --------- --- ----------- ------- ----- ------- ---<br>--------- ---- -- saw ---- -- --------- -- ---- -------<br>-- --------- ------ --- ----- ------ ---- --- --------- --<br>------ - ---- -- --- ----------- ------- ---- ----- -----<br>--- -------- - ------ ---- -- ----- ---- --- --- -----------<br>-- -------,268536.0900000087,268534.9849999766,268324.563,268339.74999998463,268346.406,268542.856,,19,saw
screen,html.Screen,2_3_1_0_1_20,2021-04-24T14:55:39.734Z,,,,,,,,,,,,,,,,,2,,,,,,,,,,,,,,324.43399996554945,,response,,,,1,C,,,,,,Space,keypress(Space),,,,instrumental,,,,--- ---- ------ --- ------- ---------- ------- ----------<br>--- --------- --- ----------- ------- ----- ------- ---<br>--------- ---- -- --- what -- --------- -- ---- -------<br>-- --------- ------ --- ----- ------ ---- --- --------- --<br>------ - ---- -- --- ----------- ------- ---- ----- -----<br>--- -------- - ------ ---- -- ----- ---- --- --- -----------<br>-- -------,268868.87999996543,268867.2899999656,268530.025,268536.3699999871,268542.856,268875.858,,20,what
screen,html.Screen,2_3_1_0_1_21,2021-04-24T14:55:39.934Z,,,,,,,,,,,,,,,,,2,,,,,,,,,,,,,,192.13200001046062,,response,,,,1,C,,,,,,Space,keypress(Space),,,,instrumental,,,,--- ---- ------ --- ------- ---------- ------- ----------<br>--- --------- --- ----------- ------- ----- ------- ---<br>--------- ---- -- --- ---- he --------- -- ---- -------<br>-- --------- ------ --- ----- ------ ---- --- --------- --<br>------ - ---- -- --- ----------- ------- ---- ----- -----<br>--- -------- - ------ ---- -- ----- ---- --- --- -----------<br>-- -------,269069.08499996644,269067.99000001047,268859.706,268869.2499999888,268875.858,269075.879,,21,he
screen,html.Screen,2_3_1_0_1_22,2021-04-24T14:55:40.115Z,,,,,,,,,,,,,,,,,2,,,,,,,,,,,,,,172.1759999745409,,response,,,,1,C,,,,,,Space,keypress(Space),,,,instrumental,,,,--- ---- ------ --- ------- ---------- ------- ----------<br>--- --------- --- ----------- ------- ----- ------- ---<br>--------- ---- -- --- ---- -- described -- ---- -------<br>-- --------- ------ --- ----- ------ ---- --- --------- --<br>------ - ---- -- --- ----------- ------- ---- ----- -----<br>--- -------- - ------ ---- -- ----- ---- --- --- -----------<br>-- -------,269249.26999997115,269248.05499997456,269059.158,269069.3849999807,269075.879,269256.075,,22,described
screen,html.Screen,2_3_1_0_1_23,2021-04-24T14:55:40.242Z,,,,,,,,,,,,,,,,,2,,,,,,,,,,,,,,119.21000001643552,,response,,,,1,C,,,,,,Space,keypress(Space),,,,instrumental,,,,--- ---- ------ --- ------- ---------- ------- ----------<br>--- --------- --- ----------- ------- ----- ------- ---<br>--------- ---- -- --- ---- -- --------- as ---- -------<br>-- --------- ------ --- ----- ------ ---- --- --------- --<br>------ - ---- -- --- ----------- ------- ---- ----- -----<br>--- -------- - ------ ---- -- ----- ---- --- --- -----------<br>-- -------,269376.49499997497,269375.28500001645,269242.855,269249.5699999854,269256.075,269389.497,,23,as
screen,html.Screen,2_3_1_0_1_24,2021-04-24T14:55:40.790Z,,,,,,,,,,,,,,,,,2,,,,,,,,,,,,,,534.4979999610223,,response,,,,1,C,,,,,,Space,keypress(Space),,,,instrumental,,,,"--- ---- ------ --- ------- ---------- ------- ----------<br>--- --------- --- ----------- ------- ----- ------- ---<br>--------- ---- -- --- ---- -- --------- -- ""two -------<br>-- --------- ------ --- ----- ------ ---- --- --------- --<br>------ - ---- -- --- ----------- ------- ---- ----- -----<br>--- -------- - ------ ---- -- ----- ---- --- --- -----------<br>-- -------",269925.1949999598,269923.994999961,269373.015,269376.8299999647,269389.497,269932,,24,"""two"
screen,html.Screen,2_3_1_0_1_25,2021-04-24T14:55:41.042Z,,,,,,,,,,,,,,,,,2,,,,,,,,,,,,,,243.504999991972,,response,,,,1,C,,,,,,Space,keypress(Space),,,,instrumental,,,,--- ---- ------ --- ------- ---------- ------- ----------<br>--- --------- --- ----------- ------- ----- ------- ---<br>--------- ---- -- --- ---- -- --------- -- ---- patches<br>-- --------- ------ --- ----- ------ ---- --- --------- --<br>------ - ---- -- --- ----------- ------- ---- ----- -----<br>--- -------- - ------ ---- -- ----- ---- --- --- -----------<br>-- -------,270176.78500001784,270175.504999992,269923.239,269925.504999992,269932,270183.64,,25,patches
screen,html.Screen,2_3_1_0_1_26,2021-04-24T14:55:41.653Z,,,,,,,,,,,,,,,,,2,,,,,,,,,,,,,,603.279999984079,,response,,,,1,C,,,,,,Space,keypress(Space),,,,instrumental,,,,--- ---- ------ --- ------- ---------- ------- ----------<br>--- --------- --- ----------- ------- ----- ------- ---<br>--------- ---- -- --- ---- -- --------- -- ---- -------<br>of --------- ------ --- ----- ------ ---- --- --------- --<br>------ - ---- -- --- ----------- ------- ---- ----- -----<br>--- -------- - ------ ---- -- ----- ---- --- --- -----------<br>-- -------,270787.9899999825,270786.9199999841,270165.389,270177.07500001416,270183.64,270801.126,,26,of
screen,html.Screen,2_3_1_0_1_27,2021-04-24T14:55:41.860Z,,,,,,,,,,,,,,,,,2,,,,,,,,,,,,,,192.47899996693013,,response,,,,1,C,,,,,,Space,keypress(Space),,,,instrumental,,,,--- ---- ------ --- ------- ---------- ------- ----------<br>--- --------- --- ----------- ------- ----- ------- ---<br>--------- ---- -- --- ---- -- --------- -- ---- -------<br>-- intensely ------ --- ----- ------ ---- --- --------- --<br>------ - ---- -- --- ----------- ------- ---- ----- -----<br>--- -------- - ------ ---- -- ----- ---- --- --- -----------<br>-- -------,270994.7899999679,270993.6049999669,270783.785,270788.27999997884,270801.126,271001.67,,27,intensely
screen,html.Screen,2_3_1_0_1_28,2021-04-24T14:55:42.076Z,,,,,,,,,,,,,,,,,2,,,,,,,,,,,,,,208.39000001217937,,response,,,,1,C,,,,,,Space,keypress(Space),,,,instrumental,,,,--- ---- ------ --- ------- ---------- ------- ----------<br>--- --------- --- ----------- ------- ----- ------- ---<br>--------- ---- -- --- ---- -- --------- -- ---- -------<br>-- --------- bright --- ----- ------ ---- --- --------- --<br>------ - ---- -- --- ----------- ------- ---- ----- -----<br>--- -------- - ------ ---- -- ----- ---- --- --- -----------<br>-- -------,271211.2099999795,271210.06000001216,270989.689,270995.1149999979,271001.67,271218.039,,28,bright
screen,html.Screen,2_3_1_0_1_29,2021-04-24T14:55:42.311Z,,,,,,,,,,,,,,,,,2,,,,,,,,,,,,,,226.31100000522565,,response,,,,1,C,,,,,,Space,keypress(Space),,,,instrumental,,,,--- ---- ------ --- ------- ---------- ------- ----------<br>--- --------- --- ----------- ------- ----- ------- ---<br>--------- ---- -- --- ---- -- --------- -- ---- -------<br>-- --------- ------ and ----- ------ ---- --- --------- --<br>------ - ---- -- --- ----------- ------- ---- ----- -----<br>--- -------- - ------ ---- -- ----- ---- --- --- -----------<br>-- -------,271445.69500000216,271444.3500000052,271201.726,271211.4949999959,271218.039,271452.612,,29,and
screen,html.Screen,2_3_1_0_1_30,2021-04-24T14:55:42.589Z,,,,,,,,,,,,,,,,,2,,,,,,,,,,,,,,270.58299996954156,,response,,,,1,C,,,,,,Space,keypress(Space),,,,instrumental,,,,--- ---- ------ --- ------- ---------- ------- ----------<br>--- --------- --- ----------- ------- ----- ------- ---<br>--------- ---- -- --- ---- -- --------- -- ---- -------<br>-- --------- ------ --- white ------ ---- --- --------- --<br>------ - ---- -- --- ----------- ------- ---- ----- -----<br>--- -------- - ------ ---- -- ----- ---- --- --- -----------<br>-- -------,271724.27499998594,271723.19499996956,271434.978,271446.0700000054,271452.612,271727.524,,30,white
screen,html.Screen,2_3_1_0_1_31,2021-04-24T14:55:42.831Z,,,,,,,,,,,,,,,,,2,,,,,,,,,,,,,,236.7459999967832,,response,,,,1,C,,,,,,Space,keypress(Space),,,,instrumental,,,,"--- ---- ------ --- ------- ---------- ------- ----------<br>--- --------- --- ----------- ------- ----- ------- ---<br>--------- ---- -- --- ---- -- --------- -- ---- -------<br>-- --------- ------ --- ----- light"" ---- --- --------- --<br>------ - ---- -- --- ----------- ------- ---- ----- -----<br>--- -------- - ------ ---- -- ----- ---- --- --- -----------<br>-- -------",271965.4650000157,271964.26999999676,271719.409,271724.5699999621,271727.524,271972.23,,31,"light"""
screen,html.Screen,2_3_1_0_1_32,2021-04-24T14:55:43.151Z,,,,,,,,,,,,,,,,,2,,,,,,,,,,,,,,312.0599999814294,,response,,,,1,C,,,,,,Space,keypress(Space),,,,instrumental,,,,--- ---- ------ --- ------- ---------- ------- ----------<br>--- --------- --- ----------- ------- ----- ------- ---<br>--------- ---- -- --- ---- -- --------- -- ---- -------<br>-- --------- ------ --- ----- ------ over --- --------- --<br>------ - ---- -- --- ----------- ------- ---- ----- -----<br>--- -------- - ------ ---- -- ----- ---- --- --- -----------<br>-- -------,272285.77499999665,272284.2899999814,271961.136,271965.7850000076,271972.23,272301.195,,32,over
screen,html.Screen,2_3_1_0_1_33,2021-04-24T14:55:43.424Z,,,,,,,,,,,,,,,,,2,,,,,,,,,,,,,,255.94999996974366,,response,,,,1,C,,,,,,Space,keypress(Space),,,,instrumental,,,,--- ---- ------ --- ------- ---------- ------- ----------<br>--- --------- --- ----------- ------- ----- ------- ---<br>--------- ---- -- --- ---- -- --------- -- ---- -------<br>-- --------- ------ --- ----- ------ ---- the --------- --<br>------ - ---- -- --- ----------- ------- ---- ----- -----<br>--- -------- - ------ ---- -- ----- ---- --- --- -----------<br>-- -------,272558.3099999931,272557.14499996975,272272.366,272286.16000001784,272301.195,272565.204,,33,the
screen,html.Screen,2_3_1_0_1_34,2021-04-24T14:55:43.787Z,,,,,,,,,,,,,,,,,2,,,,,,,,,,,,,,354.99100001330953,,response,,,,1,C,,,,,,Space,keypress(Space),,,,instrumental,,,,--- ---- ------ --- ------- ---------- ------- ----------<br>--- --------- --- ----------- ------- ----- ------- ---<br>--------- ---- -- --- ---- -- --------- -- ---- -------<br>-- --------- ------ --- ----- ------ ---- --- sunspots. --<br>------ - ---- -- --- ----------- ------- ---- ----- -----<br>--- -------- - ------ ---- -- ----- ---- --- --- -----------<br>-- -------,272921.45500000333,272920.19500001334,272551.317,272558.60499996925,272565.204,272928.488,,34,sunspots.
screen,html.Screen,2_3_1_0_1_35,2021-04-24T14:55:44.014Z,,,,,,,,,,,,,,,,,2,,,,,,,,,,,,,,218.51699997705873,,response,,,,1,C,,,,,,Space,keypress(Space),,,,instrumental,,,,--- ---- ------ --- ------- ---------- ------- ----------<br>--- --------- --- ----------- ------- ----- ------- ---<br>--------- ---- -- --- ---- -- --------- -- ---- -------<br>-- --------- ------ --- ----- ------ ---- --- --------- He<br>------ - ---- -- --- ----------- ------- ---- ----- -----<br>--- -------- - ------ ---- -- ----- ---- --- --- -----------<br>-- -------,273148.37499998976,273147.00499997707,272915.468,272921.8099999707,272928.488,273155.451,,35,He
