sender,sender_type,sender_id,timestamp,meta,,Blues,Classical,Country,Dance,Electronic,Folk,Gospel,Hip-Hop,Jazz,Latin,Musical/Film,New-age,Pop,Prolific_id,Provo_ID,R&B,Rap,Reggae,Religious,Rock,Soul,Swing,Traditional,age,artist_name,correct,correctResponse,distraction,duration,education,ended_on,familiarity,gender,headphone_check_performance,item,list,music_frequency,offensiveness,pleasantness,position_correct,preference,response,response_action,snippet_file,song_name,song_rating,sound,stimulus_1,stimulus_2,stimulus_3,text,time_commit,time_end,time_render,time_run,time_show,time_switch,url,word,word_ID
Prolific ID,html.Form,0,2021-04-30T12:48:27.837Z,"{""labjs_version"":""20.2.2"",""labjs_build"":{""flavor"":""production"",""commit"":""a25486e0c714a0ae2ce03ff94b7bb6896854dcfa""},""location"":""https://run.pavlovia.org/mvasilev/prolific_music_e/"",""userAgent"":""Mozilla/5.0 (Windows NT 10.0; Win64; x64) AppleWebKit/537.36 (KHTML, like Gecko) Chrome/90.0.4430.93 Safari/537.36"",""platform"":""Win32"",""language"":""en-GB"",""locale"":""en-GB"",""timeZone"":""Europe/London"",""timezoneOffset"":-60,""screen_width"":1280,""screen_height"":720,""scroll_width"":1280,""scroll_height"":578,""window_innerWidth"":1280,""window_innerHeight"":578,""devicePixelRatio"":1.5}",,,,,,,,,,,,,,,5731cb425b8b0600107d17d2,,,,,,,,,,,,,,,9261.729000002199,,form submission,,,,,,,,,,,,,,,,,,,,,17516.360000008717,17515.610000002198,8220.568,8234.105000039563,8253.881,17528.577,{},,
Introduction,html.Screen,1_0,2021-04-30T12:48:33.186Z,,,,,,,,,,,,,,,,,,,,,,,,,,,,,,,5333.82800002168,,response,,,,,,,,,,,continue,click button,,,,,,,,,22864.735000010114,22862.40500002168,17511.981,17516.83999999659,17528.577,22873.596,,,
Volume calibration,html.Screen,1_1,2021-04-30T12:49:05.297Z,,,,,,,,,,,,,,,,,,,,,,,,,,,,,,,32099.128999999626,,response,,,,,,,,,,,continue,click button,,,,,,,,,54975.659999996424,54972.72499999963,22856.964,22864.925000001676,22873.596,54976.959,,,
Task instructions,html.Screen,1_2,2021-04-30T12:49:15.225Z,,,,,,,,,,,,,,,,,,,,,,,,,,,,,,,9925.895999992994,,response,,,,,,,,,,,continue,click button,,,,,,,,,64903.61500001745,64902.854999993,54960.473,54975.78999999678,54976.959,64918.104,,,
Sounds,html.Screen,1_3_0_0,2021-04-30T12:49:19.471Z,,,,,,,,,,,,,,,,,,,,,,,,,,,,,,,4245.6759999999995,,timeout,,,,,,,,,1,,,,,,,,S,O,I,,69150.41500004008,69147.316,64901.335,64903.81500002695,64918.104,69163.78,,,
Judgement,html.Screen,1_3_0_1,2021-04-30T12:49:20.698Z,,,,,,,,,,,,,,,,,,,,,,,,,,,,true,1,,1212.310000034311,,response,,,,,,,,,1,,1,click #choice-1,,,,,S,O,I,,70376.92499998957,70376.09000003431,69147.316,69150.59000003384,69163.78,70379.229,,,
Trial,flow.Sequence,1_3_0,2021-04-30T12:49:20.698Z,,,,,,,,,,,,,,,,,,,,,,,,,,,,,,,5457.986000034311,,completion,,,,,,,,,1,,,,,,,,S,O,I,,70377.25000001956,70376.09000003431,64901.335,64903.77500001341,64918.104,70379.229,,,
Sounds,html.Screen,1_3_1_0,2021-04-30T12:49:24.932Z,,,,,,,,,,,,,,,,,,,,,,,,,,,,,,,4246.335999999996,,timeout,,,,,,,,,2,,,,,,,,O,S,I,,74610.64000002807,74608.675,70362.619,70377.37500004005,70379.229,74625.565,,,
Judgement,html.Screen,1_3_1_1,2021-04-30T12:49:25.556Z,,,,,,,,,,,,,,,,,,,,,,,,,,,,true,2,,608.1800000341027,,response,,,,,,,,,2,,2,click #choice-2,,,,,O,S,I,,75234.64500001865,75233.7450000341,74608.675,74610.74500001268,74625.565,75241.459,,,
Trial,flow.Sequence,1_3_1,2021-04-30T12:49:25.556Z,,,,,,,,,,,,,,,,,,,,,,,,,,,,,,,4854.516000034098,,completion,,,,,,,,,2,,,,,,,,O,S,I,,75234.82499999227,75233.7450000341,70362.619,70377.34000000637,70379.229,75241.459,,,
Sounds,html.Screen,1_3_2_0,2021-04-30T12:49:29.793Z,,,,,,,,,,,,,,,,,,,,,,,,,,,,,,,4246.044999999998,,timeout,,,,,,,,,3,,,,,,,,I,O,S,,79472.02500002459,79471.262,75224.774,75234.93500001496,75241.459,79487.504,,,
Judgement,html.Screen,1_3_2_1,2021-04-30T12:49:30.405Z,,,,,,,,,,,,,,,,,,,,,,,,,,,,true,3,,596.211000015217,,response,,,,,,,,,3,,3,click #choice-3,,,,,I,O,S,,80084.48000001954,80083.71500001522,79471.262,79472.13499998907,79487.504,80086.844,,,
Trial,flow.Sequence,1_3_2,2021-04-30T12:49:30.406Z,,,,,,,,,,,,,,,,,,,,,,,,,,,,,,,4842.256000015215,,completion,,,,,,,,,3,,,,,,,,I,O,S,,80084.6400000155,80083.71500001522,75224.774,75234.90000003949,75241.459,80086.844,,,
Sounds,html.Screen,1_3_3_0,2021-04-30T12:49:34.638Z,,,,,,,,,,,,,,,,,,,,,,,,,,,,,,,4246.085999999996,,timeout,,,,,,,,,1,,,,,,,,S,I,O,,84317.17500003288,84316.42,80070.503,80084.79500003159,80086.844,84332.93,,,
Judgement,html.Screen,1_3_3_1,2021-04-30T12:49:35.224Z,,,,,,,,,,,,,,,,,,,,,,,,,,,,true,1,,568.8300000370364,,response,,,,,,,,,1,,1,click #choice-1,,,,,S,I,O,,84902.63000002597,84901.76000003703,84316.42,84317.29000003543,84332.93,84915.701,,,
Trial,flow.Sequence,1_3_3,2021-04-30T12:49:35.224Z,,,,,,,,,,,,,,,,,,,,,,,,,,,,,,,4814.916000037032,,completion,,,,,,,,,1,,,,,,,,S,I,O,,84902.78499998385,84901.76000003703,80070.503,80084.74000002025,80086.844,84915.701,,,
Sounds,html.Screen,1_3_4_0,2021-04-30T12:49:39.467Z,,,,,,,,,,,,,,,,,,,,,,,,,,,,,,,4246.350999999995,,timeout,,,,,,,,,2,,,,,,,,I,S,O,,89146.21500001522,89145.37,84899.067,84902.8999999864,84915.701,89162.052,,,
Judgement,html.Screen,1_3_4_1,2021-04-30T12:49:40.004Z,,,,,,,,,,,,,,,,,,,,,,,,,,,,true,2,,520.5180000044929,,response,,,,,,,,,2,,2,click #choice-2,,,,,I,S,O,,89683.43500001356,89682.57000000449,89145.37,89146.31500001997,89162.052,89694.645,,,
Trial,flow.Sequence,1_3_4,2021-04-30T12:49:40.005Z,,,,,,,,,,,,,,,,,,,,,,,,,,,,,,,4766.869000004488,,completion,,,,,,,,,2,,,,,,,,I,S,O,,89683.7050000322,89682.57000000449,84899.067,84902.8699999908,84915.701,89694.645,,,
Sounds,html.Screen,1_3_5_0,2021-04-30T12:49:44.246Z,,,,,,,,,,,,,,,,,,,,,,,,,,,,,,,4246.22099999999,,timeout,,,,,,,,,3,,,,,,,,O,I,S,,93924.66000001878,93923.995,89678.035,89683.89500002377,89694.645,93940.866,,,
Judgement,html.Screen,1_3_5_1,2021-04-30T12:49:44.777Z,,,,,,,,,,,,,,,,,,,,,,,,,,,,true,3,,514.3139999899286,,response,,,,,,,,,3,,3,click #choice-3,,,,,O,I,S,,94455.97000000998,94455.17999998992,93923.995,93924.75000000559,93940.866,94456.759,,,
Trial,flow.Sequence,1_3_5,2021-04-30T12:49:44.777Z,,,,,,,,,,,,,,,,,,,,,,,,,,,,,,,4760.534999989919,,completion,,,,,,,,,3,,,,,,,,O,I,S,,94456.11500000814,94455.17999998992,89678.035,89683.84000001242,89694.645,94456.759,,,
Task,flow.Loop,1_3,2021-04-30T12:49:44.782Z,,,,,,,,,,,,,,,,,,,,,,,,,,,,,,,29537.075999989924,,completion,,,1,,,,,,,,,,,,,,,,,,94460.88999998756,94455.17999998992,64901.335,64903.72500004014,64918.104,94456.759,,,
Trap,html.Screen,1_4,2021-04-30T12:49:44.783Z,,,,,,,,,,,,,,,,,,,,,,,,,,,,,,,NaN,,skipped,,,,,,,,,,,,,,,,,,,,,94462.15999999549,94455.17999998992,,94461.99999999953,,94456.759,,,
Thanks,html.Screen,1_5,2021-04-30T12:49:48.377Z,,,,,,,,,,,,,,,,,,,,,,,,,,,,,,,3598.701000003217,,response,,,,,,,,,,,continue,click button,,,,,,,,,98056.22000002768,98055.46000000322,94440.429,94462.28999999585,94456.759,105013.596,,,
Headphone screening,flow.Sequence,1,2021-04-30T12:49:48.377Z,,,,,,,,,,,,,,,,,,,,,,,,,,,,,,,80526.88300000322,,completion,,,,,,,,,,,,,,,,,,,,,98056.37499998556,98055.46000000322,17511.981,17516.79999998305,17528.577,105013.596,,,
Instructions,html.Page,2_0,2021-04-30T12:50:15.366Z,,,,,,,,,,,,,,,,,,,,,,,,,,,,,,,20030.539000032833,,form submission,,,,,,,,,,,,,,,,,,,,,125044.34500000207,125044.13500003284,104997.242,105022.07499998622,105013.596,125044.89,,,
Holding screen,html.Screen,2_1_0_0,2021-04-30T12:50:25.358Z,,,,,,,,,,,,,,,,,,,,,,,,,,,,,,,10007.335999999996,,timeout,,,,,,,,,,,,,,,,,,,,,135036.33000003174,135035.667,125028.368,125044.5250000339,125044.89,135052.226,,,
screen,html.Screen,2_1_0_1_0,2021-04-30T12:50:26.317Z,,,,,,,,,,,,,,,,,53,,,,,,,,,,,,,,941.0340000174765,,response,,,,99,,,,,,,Space,keypress(Space),,,,,,,,When -- ----- -- ------ - ------- --- ----------<br>------------- ------ ------ ---- ---- ------- ----- -- ----<br>-------- ------- -- ---------- --- - --- ----- ----- ----<br>---- --- --- ----- --- ---- ---- ------- ----- ---- -------<br>--- --- -- ----- -- --- ---- -- --- ---- -- ------ ------<br>--- ----- -- ----,135995.38500001654,135993.26000001747,135035.667,135036.48000000976,135052.226,136001.391,,0,When
screen,html.Screen,2_1_0_1_1,2021-04-30T12:50:27.057Z,,,,,,,,,,,,,,,,,53,,,,,,,,,,,,,,733.7440000244533,,response,,,,99,,,,,,,Space,keypress(Space),,,,,,,,---- it ----- -- ------ - ------- --- ----------<br>------------- ------ ------ ---- ---- ------- ----- -- ----<br>-------- ------- -- ---------- --- - --- ----- ----- ----<br>---- --- --- ----- --- ---- ---- ------- ----- ---- -------<br>--- --- -- ----- -- --- ---- -- --- ---- -- ------ ------<br>--- ----- -- ----,136735.73000001488,136735.13500002446,135984.705,135995.49000000115,136001.391,136750.878,,1,it
screen,html.Screen,2_1_0_1_2,2021-04-30T12:50:27.857Z,,,,,,,,,,,,,,,,,53,,,,,,,,,,,,,,784.2020000014745,,response,,,,99,,,,,,,Space,keypress(Space),,,,,,,,---- -- comes -- ------ - ------- --- ----------<br>------------- ------ ------ ---- ---- ------- ----- -- ----<br>-------- ------- -- ---------- --- - --- ----- ----- ----<br>---- --- --- ----- --- ---- ---- ------- ----- ---- -------<br>--- --- -- ----- -- --- ---- -- --- ---- -- ------ ------<br>--- ----- -- ----,137535.56500002742,137535.08000000147,136734.283,136735.8349999995,136750.878,137550.203,,2,comes
screen,html.Screen,2_1_0_1_3,2021-04-30T12:50:28.478Z,,,,,,,,,,,,,,,,,53,,,,,,,,,,,,,,606.2369999915536,,response,,,,99,,,,,,,Space,keypress(Space),,,,,,,,---- -- ----- to ------ - ------- --- ----------<br>------------- ------ ------ ---- ---- ------- ----- -- ----<br>-------- ------- -- ---------- --- - --- ----- ----- ----<br>---- --- --- ----- --- ---- ---- ------- ----- ---- -------<br>--- --- -- ----- -- --- ---- -- --- ---- -- ------ ------<br>--- ----- -- ----,138157.07499999553,138156.43999999156,137533.549,137535.65500001423,137550.203,138166.283,,3,to
screen,html.Screen,2_1_0_1_4,2021-04-30T12:50:29.137Z,,,,,,,,,,,,,,,,,53,,,,,,,,,,,,,,648.4420000038226,,response,,,,99,,,,,,,Space,keypress(Space),,,,,,,,---- -- ----- -- having - ------- --- ----------<br>------------- ------ ------ ---- ---- ------- ----- -- ----<br>-------- ------- -- ---------- --- - --- ----- ----- ----<br>---- --- --- ----- --- ---- ---- ------- ----- ---- -------<br>--- --- -- ----- -- --- ---- -- --- ---- -- ------ ------<br>--- ----- -- ----,138815.3600000078,138814.72500000382,138149.872,138157.20000001602,138166.283,138848.835,,4,having
screen,html.Screen,2_1_0_1_5,2021-04-30T12:50:29.809Z,,,,,,,,,,,,,,,,,53,,,,,,,,,,,,,,638.365000032325,,response,,,,99,,,,,,,Space,keypress(Space),,,,,,,,---- -- ----- -- ------ a ------- --- ----------<br>------------- ------ ------ ---- ---- ------- ----- -- ----<br>-------- ------- -- ---------- --- - --- ----- ----- ----<br>---- --- --- ----- --- ---- ---- ------- ----- ---- -------<br>--- --- -- ----- -- --- ---- -- --- ---- -- ------ ------<br>--- ----- -- ----,139487.77499998687,139487.20000003232,138832.577,138815.49000000814,138848.835,139498.496,,5,a
screen,html.Screen,2_1_0_1_6,2021-04-30T12:50:30.366Z,,,,,,,,,,,,,,,,,53,,,,,,,,,,,,,,546.0089999980119,,response,,,,99,,,,,,,Space,keypress(Space),,,,,,,,---- -- ----- -- ------ - lasting --- ----------<br>------------- ------ ------ ---- ---- ------- ----- -- ----<br>-------- ------- -- ---------- --- - --- ----- ----- ----<br>---- --- --- ----- --- ---- ---- ------- ----- ---- -------<br>--- --- -- ----- -- --- ---- -- --- ---- -- ------ ------<br>--- ----- -- ----,140045.01000000164,140044.50499999803,139481.997,139487.8650000319,139498.496,140047.547,,6,lasting
screen,html.Screen,2_1_0_1_7,2021-04-30T12:50:30.998Z,,,,,,,,,,,,,,,,,53,,,,,,,,,,,,,,628.2479999882926,,response,,,,99,,,,,,,Space,keypress(Space),,,,,,,,---- -- ----- -- ------ - ------- and ----------<br>------------- ------ ------ ---- ---- ------- ----- -- ----<br>-------- ------- -- ---------- --- - --- ----- ----- ----<br>---- --- --- ----- --- ---- ---- ------- ----- ---- -------<br>--- --- -- ----- -- --- ---- -- --- ---- -- ------ ------<br>--- ----- -- ----,140676.23000004096,140675.79499998828,140031.403,140045.1849999954,140047.547,140680.339,,7,and
screen,html.Screen,2_1_0_1_8,2021-04-30T12:50:31.616Z,,,,,,,,,,,,,,,,,53,,,,,,,,,,,,,,614.2610000229033,,response,,,,99,,,,,,,Space,keypress(Space),,,,,,,,---- -- ----- -- ------ - ------- --- fulfilling<br>------------- ------ ------ ---- ---- ------- ----- -- ----<br>-------- ------- -- ---------- --- - --- ----- ----- ----<br>---- --- --- ----- --- ---- ---- ------- ----- ---- -------<br>--- --- -- ----- -- --- ---- -- --- ---- -- ------ ------<br>--- ----- -- ----,141295.01000000164,141294.6000000229,140663.998,140676.32500000764,140680.339,141296.409,,8,fulfilling
screen,html.Screen,2_1_0_1_9,2021-04-30T12:50:32.775Z,,,,,,,,,,,,,,,,,53,,,,,,,,,,,,,,1156.8759999959439,,response,,,,99,,,,,,,Space,keypress(Space),,,,,,,,"---- -- ----- -- ------ - ------- --- ----------<br>relationship, ------ ------ ---- ---- ------- ----- -- ----<br>-------- ------- -- ---------- --- - --- ----- ----- ----<br>---- --- --- ----- --- ---- ---- ------- ----- ---- -------<br>--- --- -- ----- -- --- ---- -- --- ---- -- ------ ------<br>--- ----- -- ----",142453.8000000175,142453.28499999596,141279.855,141295.09999998845,141296.409,142462.04,,9,"relationship,"
screen,html.Screen,2_1_0_1_10,2021-04-30T12:50:33.292Z,,,,,,,,,,,,,,,,,53,,,,,,,,,,,,,,507.9150000368536,,response,,,,99,,,,,,,Space,keypress(Space),,,,,,,,---- -- ----- -- ------ - ------- --- ----------<br>------------- common ------ ---- ---- ------- ----- -- ----<br>-------- ------- -- ---------- --- - --- ----- ----- ----<br>---- --- --- ----- --- ---- ---- ------- ----- ---- -------<br>--- --- -- ----- -- --- ---- -- --- ---- -- ------ ------<br>--- ----- -- ----,142970.3950000112,142969.95500003686,142445.336,142453.8949999842,142462.04,142978.301,,10,common
screen,html.Screen,2_1_0_1_11,2021-04-30T12:50:33.769Z,,,,,,,,,,,,,,,,,53,,,,,,,,,,,,,,469.26900001845206,,response,,,,99,,,,,,,Space,keypress(Space),,,,,,,,---- -- ----- -- ------ - ------- --- ----------<br>------------- ------ wisdom ---- ---- ------- ----- -- ----<br>-------- ------- -- ---------- --- - --- ----- ----- ----<br>---- --- --- ----- --- ---- ---- ------- ----- ---- -------<br>--- --- -- ----- -- --- ---- -- --- ---- -- ------ ------<br>--- ----- -- ----,143448.09000001987,143447.57000001846,142961.79,142970.484999998,142978.301,143461.281,,11,wisdom
screen,html.Screen,2_1_0_1_12,2021-04-30T12:50:34.326Z,,,,,,,,,,,,,,,,,53,,,,,,,,,,,,,,543.4039999926172,,response,,,,99,,,,,,,Space,keypress(Space),,,,,,,,---- -- ----- -- ------ - ------- --- ----------<br>------------- ------ ------ says ---- ------- ----- -- ----<br>-------- ------- -- ---------- --- - --- ----- ----- ----<br>---- --- --- ----- --- ---- ---- ------- ----- ---- -------<br>--- --- -- ----- -- --- ---- -- --- ---- -- ------ ------<br>--- ----- -- ----,144005.17499999842,144004.6849999926,143444.851,143448.2250000001,143461.281,144010.657,,12,says
screen,html.Screen,2_1_0_1_13,2021-04-30T12:50:34.806Z,,,,,,,,,,,,,,,,,53,,,,,,,,,,,,,,473.13800000736956,,response,,,,99,,,,,,,Space,keypress(Space),,,,,,,,---- -- ----- -- ------ - ------- --- ----------<br>------------- ------ ------ ---- that ------- ----- -- ----<br>-------- ------- -- ---------- --- - --- ----- ----- ----<br>---- --- --- ----- --- ---- ---- ------- ----- ---- -------<br>--- --- -- ----- -- --- ---- -- --- ---- -- ------ ------<br>--- ----- -- ----,144484.3150000088,144483.79500000738,143994.118,144005.26499998523,144010.657,144493.836,,13,that
screen,html.Screen,2_1_0_1_14,2021-04-30T12:50:35.302Z,,,,,,,,,,,,,,,,,53,,,,,,,,,,,,,,486.7290000343928,,response,,,,99,,,,,,,Space,keypress(Space),,,,,,,,---- -- ----- -- ------ - ------- --- ----------<br>------------- ------ ------ ---- ---- feeling ----- -- ----<br>-------- ------- -- ---------- --- - --- ----- ----- ----<br>---- --- --- ----- --- ---- ---- ------- ----- ---- -------<br>--- --- -- ----- -- --- ---- -- --- ---- -- ------ ------<br>--- ----- -- ----,144981.21500003617,144980.5650000344,144477.233,144484.41000003368,144493.836,144993.024,,14,feeling
screen,html.Screen,2_1_0_1_15,2021-04-30T12:50:35.940Z,,,,,,,,,,,,,,,,,53,,,,,,,,,,,,,,625.3510000200185,,response,,,,99,,,,,,,Space,keypress(Space),,,,,,,,---- -- ----- -- ------ - ------- --- ----------<br>------------- ------ ------ ---- ---- ------- close -- ----<br>-------- ------- -- ---------- --- - --- ----- ----- ----<br>---- --- --- ----- --- ---- ---- ------- ----- ---- -------<br>--- --- -- ----- -- --- ---- -- --- ---- -- ------ ------<br>--- ----- -- ----,145618.9149999991,145618.37500002002,144976.332,144981.31000000285,144993.024,145625.783,,15,close
screen,html.Screen,2_1_0_1_16,2021-04-30T12:50:36.836Z,,,,,,,,,,,,,,,,,53,,,,,,,,,,,,,,888.5620000323397,,response,,,,99,,,,,,,Space,keypress(Space),,,,,,,,---- -- ----- -- ------ - ------- --- ----------<br>------------- ------ ------ ---- ---- ------- ----- to ----<br>-------- ------- -- ---------- --- - --- ----- ----- ----<br>---- --- --- ----- --- ---- ---- ------- ----- ---- -------<br>--- --- -- ----- -- --- ---- -- --- ---- -- ------ ------<br>--- ----- -- ----,146514.88000003155,146514.34500003234,145609.345,145619.010000024,145625.783,146525.037,,16,to
screen,html.Screen,2_1_0_1_17,2021-04-30T12:50:37.557Z,,,,,,,,,,,,,,,,,53,,,,,,,,,,,,,,710.4229999962263,,response,,,,99,,,,,,,Space,keypress(Space),,,,,,,,---- -- ----- -- ------ - ------- --- ----------<br>------------- ------ ------ ---- ---- ------- ----- -- your<br>-------- ------- -- ---------- --- - --- ----- ----- ----<br>---- --- --- ----- --- ---- ---- ------- ----- ---- -------<br>--- --- -- ----- -- --- ---- -- --- ---- -- ------ ------<br>--- ----- -- ----,147236.0200000112,147235.45999999624,146508.338,146514.97000001837,146525.037,147240.943,,17,your
screen,html.Screen,2_1_0_1_18,2021-04-30T12:50:38.176Z,,,,,,,,,,,,,,,,,53,,,,,,,,,,,,,,612.8969999961264,,response,,,,99,,,,,,,Space,keypress(Space),,,,,,,,---- -- ----- -- ------ - ------- --- ----------<br>------------- ------ ------ ---- ---- ------- ----- -- ----<br>romantic ------- -- ---------- --- - --- ----- ----- ----<br>---- --- --- ----- --- ---- ---- ------- ----- ---- -------<br>--- --- -- ----- -- --- ---- -- --- ---- -- ------ ------<br>--- ----- -- ----,147854.4300000067,147853.83999999613,147224.43,147236.11500003608,147240.943,147856.928,,18,romantic
screen,html.Screen,2_1_0_1_19,2021-04-30T12:50:38.925Z,,,,,,,,,,,,,,,,,53,,,,,,,,,,,,,,745.8520000156132,,response,,,,99,,,,,,,Space,keypress(Space),,,,,,,,---- -- ----- -- ------ - ------- --- ----------<br>------------- ------ ------ ---- ---- ------- ----- -- ----<br>-------- partner -- ---------- --- - --- ----- ----- ----<br>---- --- --- ----- --- ---- ---- ------- ----- ---- -------<br>--- --- -- ----- -- --- ---- -- --- ---- -- ------ ------<br>--- ----- -- ----,148603.31500001485,148602.78000001563,147840.447,147854.52500003157,147856.928,148606.267,,19,partner
screen,html.Screen,2_1_0_1_20,2021-04-30T12:50:39.536Z,,,,,,,,,,,,,,,,,53,,,,,,,,,,,,,,607.7429999960586,,response,,,,99,,,,,,,Space,keypress(Space),,,,,,,,---- -- ----- -- ------ - ------- --- ----------<br>------------- ------ ------ ---- ---- ------- ----- -- ----<br>-------- ------- is ---------- --- - --- ----- ----- ----<br>---- --- --- ----- --- ---- ---- ------- ----- ---- -------<br>--- --- -- ----- -- --- ---- -- --- ---- -- ------ ------<br>--- ----- -- ----,149214.62500002235,149214.00999999605,148589.884,148603.41999999946,148606.267,149222.794,,20,is
screen,html.Screen,2_1_0_1_21,2021-04-30T12:50:40.570Z,,,,,,,,,,,,,,,,,53,,,,,,,,,,,,,,1025.5660000268836,,response,,,,99,,,,,,,Space,keypress(Space),,,,,,,,---- -- ----- -- ------ - ------- --- ----------<br>------------- ------ ------ ---- ---- ------- ----- -- ----<br>-------- ------- -- paramount. --- - --- ----- ----- ----<br>---- --- --- ----- --- ---- ---- ------- ----- ---- -------<br>--- --- -- ----- -- --- ---- -- --- ---- -- ------ ------<br>--- ----- -- ----,150248.9850000129,150248.36000002688,149205.875,149214.73499998683,149222.794,150254.743,,21,paramount.
screen,html.Screen,2_1_0_1_22,2021-04-30T12:50:41.535Z,,,,,,,,,,,,,,,,,53,,,,,,,,,,,,,,958.4420000005339,,response,,,,99,,,,,,,Space,keypress(Space),,,,,,,,---- -- ----- -- ------ - ------- --- ----------<br>------------- ------ ------ ---- ---- ------- ----- -- ----<br>-------- ------- -- ---------- But - --- ----- ----- ----<br>---- --- --- ----- --- ---- ---- ------- ----- ---- -------<br>--- --- -- ----- -- --- ---- -- --- ---- -- ------ ------<br>--- ----- -- ----,151213.81500002462,151213.18500000052,150238.228,150249.08999999752,150254.743,151220.703,,22,But
screen,html.Screen,2_1_0_1_23,2021-04-30T12:50:42.285Z,,,,,,,,,,,,,,,,,53,,,,,,,,,,,,,,742.1519999906595,,response,,,,99,,,,,,,Space,keypress(Space),,,,,,,,---- -- ----- -- ------ - ------- --- ----------<br>------------- ------ ------ ---- ---- ------- ----- -- ----<br>-------- ------- -- ---------- --- a --- ----- ----- ----<br>---- --- --- ----- --- ---- ---- ------- ----- ---- -------<br>--- --- -- ----- -- --- ---- -- --- ---- -- ------ ------<br>--- ----- -- ----,151963.43000000343,151962.85499999067,151203.979,151213.93000002718,151220.703,151970.018,,23,a
screen,html.Screen,2_1_0_1_24,2021-04-30T12:50:43.015Z,,,,,,,,,,,,,,,,,53,,,,,,,,,,,,,,722.7619999830204,,response,,,,99,,,,,,,Space,keypress(Space),,,,,,,,---- -- ----- -- ------ - ------- --- ----------<br>------------- ------ ------ ---- ---- ------- ----- -- ----<br>-------- ------- -- ---------- --- - new ----- ----- ----<br>---- --- --- ----- --- ---- ---- ------- ----- ---- -------<br>--- --- -- ----- -- --- ---- -- --- ---- -- ------ ------<br>--- ----- -- ----,152693.36500001373,152692.77999998303,151953.416,151963.51999999024,151970.018,152702.421,,24,new
screen,html.Screen,2_1_0_1_25,2021-04-30T12:50:44.028Z,,,,,,,,,,,,,,,,,53,,,,,,,,,,,,,,1003.2890000092739,,response,,,,99,,,,,,,Space,keypress(Space),,,,,,,,---- -- ----- -- ------ - ------- --- ----------<br>------------- ------ ------ ---- ---- ------- ----- -- ----<br>-------- ------- -- ---------- --- - --- study ----- ----<br>---- --- --- ----- --- ---- ---- ------- ----- ---- -------<br>--- --- -- ----- -- --- ---- -- --- ---- -- ------ ------<br>--- ----- -- ----,153706.27999998396,153705.71000000928,152686.419,152693.46500001848,152702.421,153718.375,,25,study
screen,html.Screen,2_1_0_1_26,2021-04-30T12:50:44.444Z,,,,,,,,,,,,,,,,,53,,,,,,,,,,,,,,403.5650000409223,,response,,,,99,,,,,,,Space,keypress(Space),,,,,,,,---- -- ----- -- ------ - ------- --- ----------<br>------------- ------ ------ ---- ---- ------- ----- -- ----<br>-------- ------- -- ---------- --- - --- ----- finds ----<br>---- --- --- ----- --- ---- ---- ------- ----- ---- -------<br>--- --- -- ----- -- --- ---- -- --- ---- -- ------ ------<br>--- ----- -- ----,154122.5400000112,154121.94000004092,153701.628,153706.37500000885,153718.375,154134.669,,26,finds
screen,html.Screen,2_1_0_1_27,2021-04-30T12:50:45.022Z,,,,,,,,,,,,,,,,,53,,,,,,,,,,,,,,565.8310000353958,,response,,,,99,,,,,,,Space,keypress(Space),,,,,,,,---- -- ----- -- ------ - ------- --- ----------<br>------------- ------ ------ ---- ---- ------- ----- -- ----<br>-------- ------- -- ---------- --- - --- ----- ----- that<br>---- --- --- ----- --- ---- ---- ------- ----- ---- -------<br>--- --- -- ----- -- --- ---- -- --- ---- -- ------ ------<br>--- ----- -- ----,154701.07000001008,154700.5000000354,154118.321,154122.64000001596,154134.669,154717.254,,27,that
screen,html.Screen,2_1_0_1_28,2021-04-30T12:50:45.529Z,,,,,,,,,,,,,,,,,53,,,,,,,,,,,,,,490.26100001644227,,response,,,,99,,,,,,,Space,keypress(Space),,,,,,,,---- -- ----- -- ------ - ------- --- ----------<br>------------- ------ ------ ---- ---- ------- ----- -- ----<br>-------- ------- -- ---------- --- - --- ----- ----- ----<br>it's --- --- ----- --- ---- ---- ------- ----- ---- -------<br>--- --- -- ----- -- --- ---- -- --- ---- -- ------ ------<br>--- ----- -- ----,155207.98499998637,155207.51500001643,154700.677,154701.16500003496,154717.254,155217.285,,28,it's
screen,html.Screen,2_1_0_1_29,2021-04-30T12:50:46.028Z,,,,,,,,,,,,,,,,,53,,,,,,,,,,,,,,488.5449999916891,,response,,,,99,,,,,,,Space,keypress(Space),,,,,,,,---- -- ----- -- ------ - ------- --- ----------<br>------------- ------ ------ ---- ---- ------- ----- -- ----<br>-------- ------- -- ---------- --- - --- ----- ----- ----<br>---- not --- ----- --- ---- ---- ------- ----- ---- -------<br>--- --- -- ----- -- --- ---- -- --- ---- -- ------ ------<br>--- ----- -- ----,155706.40500000445,155705.8299999917,155200.666,155208.09500000905,155217.285,155716.317,,29,not
screen,html.Screen,2_1_0_1_30,2021-04-30T12:50:46.505Z,,,,,,,,,,,,,,,,,53,,,,,,,,,,,,,,467.11300003368524,,response,,,,99,,,,,,,Space,keypress(Space),,,,,,,,---- -- ----- -- ------ - ------- --- ----------<br>------------- ------ ------ ---- ---- ------- ----- -- ----<br>-------- ------- -- ---------- --- - --- ----- ----- ----<br>---- --- how ----- --- ---- ---- ------- ----- ---- -------<br>--- --- -- ----- -- --- ---- -- --- ---- -- ------ ------<br>--- ----- -- ----,156184.01999998605,156183.4300000337,155699.703,155706.49499999126,155716.317,156199.335,,30,how
screen,html.Screen,2_1_0_1_31,2021-04-30T12:50:47.097Z,,,,,,,,,,,,,,,,,53,,,,,,,,,,,,,,575.5050000273332,,response,,,,99,,,,,,,Space,keypress(Space),,,,,,,,---- -- ----- -- ------ - ------- --- ----------<br>------------- ------ ------ ---- ---- ------- ----- -- ----<br>-------- ------- -- ---------- --- - --- ----- ----- ----<br>---- --- --- close --- ---- ---- ------- ----- ---- -------<br>--- --- -- ----- -- --- ---- -- --- ---- -- ------ ------<br>--- ----- -- ----,156775.28500003973,156774.84000002733,156182.615,156184.11500001093,156199.335,156782.198,,31,close
screen,html.Screen,2_1_0_1_32,2021-04-30T12:50:47.644Z,,,,,,,,,,,,,,,,,53,,,,,,,,,,,,,,539.8620000349765,,response,,,,99,,,,,,,Space,keypress(Space),,,,,,,,---- -- ----- -- ------ - ------- --- ----------<br>------------- ------ ------ ---- ---- ------- ----- -- ----<br>-------- ------- -- ---------- --- - --- ----- ----- ----<br>---- --- --- ----- you ---- ---- ------- ----- ---- -------<br>--- --- -- ----- -- --- ---- -- --- ---- -- ------ ------<br>--- ----- -- ----,157322.6700000232,157322.06000003498,156765.608,156775.37500002654,156782.198,157331.679,,32,you
screen,html.Screen,2_1_0_1_33,2021-04-30T12:50:48.525Z,,,,,,,,,,,,,,,,,53,,,,,,,,,,,,,,870.9810000099242,,response,,,,99,,,,,,,Space,keypress(Space),,,,,,,,---- -- ----- -- ------ - ------- --- ----------<br>------------- ------ ------ ---- ---- ------- ----- -- ----<br>-------- ------- -- ---------- --- - --- ----- ----- ----<br>---- --- --- ----- --- feel ---- ------- ----- ---- -------<br>--- --- -- ----- -- --- ---- -- --- ---- -- ------ ------<br>--- ----- -- ----,158203.36500002304,158202.66000000993,157315.093,157322.77500000782,157331.679,158214.265,,33,feel
screen,html.Screen,2_1_0_1_34,2021-04-30T12:50:49.176Z,,,,,,,,,,,,,,,,,53,,,,,,,,,,,,,,640.325000002631,,response,,,,99,,,,,,,Space,keypress(Space),,,,,,,,---- -- ----- -- ------ - ------- --- ----------<br>------------- ------ ------ ---- ---- ------- ----- -- ----<br>-------- ------- -- ---------- --- - --- ----- ----- ----<br>---- --- --- ----- --- ---- that ------- ----- ---- -------<br>--- --- -- ----- -- --- ---- -- --- ---- -- ------ ------<br>--- ----- -- ----,158855.08000000846,158854.59000000264,158197.575,158203.45000003,158214.265,158863.682,,34,that
screen,html.Screen,2_1_0_1_35,2021-04-30T12:50:49.856Z,,,,,,,,,,,,,,,,,53,,,,,,,,,,,,,,670.287999989494,,response,,,,99,,,,,,,Space,keypress(Space),,,,,,,,---- -- ----- -- ------ - ------- --- ----------<br>------------- ------ ------ ---- ---- ------- ----- -- ----<br>-------- ------- -- ---------- --- - --- ----- ----- ----<br>---- --- --- ----- --- ---- ---- matters ----- ---- -------<br>--- --- -- ----- -- --- ---- -- --- ---- -- ------ ------<br>--- ----- -- ----,159534.645000007,159533.9699999895,158846.707,158855.16999999527,158863.682,159546.156,,35,matters
screen,html.Screen,2_1_0_1_36,2021-04-30T12:50:50.799Z,,,,,,,,,,,,,,,,,53,,,,,,,,,,,,,,931.3590000350669,,response,,,,99,,,,,,,Space,keypress(Space),,,,,,,,"---- -- ----- -- ------ - ------- --- ----------<br>------------- ------ ------ ---- ---- ------- ----- -- ----<br>-------- ------- -- ---------- --- - --- ----- ----- ----<br>---- --- --- ----- --- ---- ---- ------- most, ---- -------<br>--- --- -- ----- -- --- ---- -- --- ---- -- ------ ------<br>--- ----- -- ----",160478.1700000167,160477.51500003505,159529.53,159535.31499998644,159546.156,160511.79,,36,"most,"
screen,html.Screen,2_1_0_1_37,2021-04-30T12:50:51.337Z,,,,,,,,,,,,,,,,,53,,,,,,,,,,,,,,502.9950000066601,,response,,,,99,,,,,,,Space,keypress(Space),,,,,,,,---- -- ----- -- ------ - ------- --- ----------<br>------------- ------ ------ ---- ---- ------- ----- -- ----<br>-------- ------- -- ---------- --- - --- ----- ----- ----<br>---- --- --- ----- --- ---- ---- ------- ----- it's -------<br>--- --- -- ----- -- --- ---- -- --- ---- -- ------ ------<br>--- ----- -- ----,161015.26499999454,161014.78500000667,160495.398,160478.32500003278,160511.79,161028.332,,37,it's
screen,html.Screen,2_1_0_1_38,2021-04-30T12:50:51.815Z,,,,,,,,,,,,,,,,,53,,,,,,,,,,,,,,464.3680000025197,,response,,,,99,,,,,,,Space,keypress(Space),,,,,,,,---- -- ----- -- ------ - ------- --- ----------<br>------------- ------ ------ ---- ---- ------- ----- -- ----<br>-------- ------- -- ---------- --- - --- ----- ----- ----<br>---- --- --- ----- --- ---- ---- ------- ----- ---- whether<br>--- --- -- ----- -- --- ---- -- --- ---- -- ------ ------<br>--- ----- -- ----,161493.30999999074,161492.70000000251,161011.593,161015.3500000015,161028.332,161522.809,,38,whether
screen,html.Screen,2_1_0_1_39,2021-04-30T12:50:52.251Z,,,,,,,,,,,,,,,,,53,,,,,,,,,,,,,,406.36100001761224,,response,,,,99,,,,,,,Space,keypress(Space),,,,,,,,---- -- ----- -- ------ - ------- --- ----------<br>------------- ------ ------ ---- ---- ------- ----- -- ----<br>-------- ------- -- ---------- --- - --- ----- ----- ----<br>---- --- --- ----- --- ---- ---- ------- ----- ---- -------<br>you --- -- ----- -- --- ---- -- --- ---- -- ------ ------<br>--- ----- -- ----,161929.70000003697,161929.17000001762,161477.593,161493.40500001563,161522.809,161943.98,,39,you
screen,html.Screen,2_1_0_1_40,2021-04-30T12:50:52.627Z,,,,,,,,,,,,,,,,,53,,,,,,,,,,,,,,360.8899999926507,,response,,,,99,,,,,,,Space,keypress(Space),,,,,,,,---- -- ----- -- ------ - ------- --- ----------<br>------------- ------ ------ ---- ---- ------- ----- -- ----<br>-------- ------- -- ---------- --- - --- ----- ----- ----<br>---- --- --- ----- --- ---- ---- ------- ----- ---- -------<br>--- are -- ----- -- --- ---- -- --- ---- -- ------ ------<br>--- ----- -- ----,162305.4649999831,162304.86999999266,161927.511,161929.7900000238,161943.98,162310.403,,40,are
screen,html.Screen,2_1_0_1_41,2021-04-30T12:50:53.030Z,,,,,,,,,,,,,,,,,53,,,,,,,,,,,,,,397.6270000379882,,response,,,,99,,,,,,,Space,keypress(Space),,,,,,,,---- -- ----- -- ------ - ------- --- ----------<br>------------- ------ ------ ---- ---- ------- ----- -- ----<br>-------- ------- -- ---------- --- - --- ----- ----- ----<br>---- --- --- ----- --- ---- ---- ------- ----- ---- -------<br>--- --- as ----- -- --- ---- -- --- ---- -- ------ ------<br>--- ----- -- ----,162708.64999998594,162708.03000003798,162293.798,162305.56000000797,162310.403,162738.662,,41,as
screen,html.Screen,2_1_0_1_42,2021-04-30T12:50:53.486Z,,,,,,,,,,,,,,,,,53,,,,,,,,,,,,,,426.03299998492,,response,,,,99,,,,,,,Space,keypress(Space),,,,,,,,---- -- ----- -- ------ - ------- --- ----------<br>------------- ------ ------ ---- ---- ------- ----- -- ----<br>-------- ------- -- ---------- --- - --- ----- ----- ----<br>---- --- --- ----- --- ---- ---- ------- ----- ---- -------<br>--- --- -- close -- --- ---- -- --- ---- -- ------ ------<br>--- ----- -- ----,163165.13500001747,163164.69499998493,162693.411,162708.76000000862,162738.662,163176.306,,42,close
screen,html.Screen,2_1_0_1_43,2021-04-30T12:50:53.833Z,,,,,,,,,,,,,,,,,53,,,,,,,,,,,,,,335.0340000263823,,response,,,,99,,,,,,,Space,keypress(Space),,,,,,,,---- -- ----- -- ------ - ------- --- ----------<br>------------- ------ ------ ---- ---- ------- ----- -- ----<br>-------- ------- -- ---------- --- - --- ----- ----- ----<br>---- --- --- ----- --- ---- ---- ------- ----- ---- -------<br>--- --- -- ----- as --- ---- -- --- ---- -- ------ ------<br>--- ----- -- ----,163511.8900000234,163511.3400000264,163159.857,163165.22500000428,163176.306,163525.803,,43,as
screen,html.Screen,2_1_0_1_44,2021-04-30T12:50:54.218Z,,,,,,,,,,,,,,,,,53,,,,,,,,,,,,,,370.8620000074734,,response,,,,99,,,,,,,Space,keypress(Space),,,,,,,,---- -- ----- -- ------ - ------- --- ----------<br>------------- ------ ------ ---- ---- ------- ----- -- ----<br>-------- ------- -- ---------- --- - --- ----- ----- ----<br>---- --- --- ----- --- ---- ---- ------- ----- ---- -------<br>--- --- -- ----- -- you ---- -- --- ---- -- ------ ------<br>--- ----- -- ----,163897.12999999756,163896.6650000075,163509.101,163511.9999999879,163525.803,163908.694,,44,you
screen,html.Screen,2_1_0_1_45,2021-04-30T12:50:54.668Z,,,,,,,,,,,,,,,,,53,,,,,,,,,,,,,,436.0360000116343,,response,,,,99,,,,,,,Space,keypress(Space),,,,,,,,---- -- ----- -- ------ - ------- --- ----------<br>------------- ------ ------ ---- ---- ------- ----- -- ----<br>-------- ------- -- ---------- --- - --- ----- ----- ----<br>---- --- --- ----- --- ---- ---- ------- ----- ---- -------<br>--- --- -- ----- -- --- want -- --- ---- -- ------ ------<br>--- ----- -- ----,164346.25000000233,164344.73000001162,163891.992,163897.25500001805,163908.694,164358.558,,45,want
screen,html.Screen,2_1_0_1_46,2021-04-30T12:50:55.050Z,,,,,,,,,,,,,,,,,53,,,,,,,,,,,,,,369.152000006492,,response,,,,99,,,,,,,Space,keypress(Space),,,,,,,,---- -- ----- -- ------ - ------- --- ----------<br>------------- ------ ------ ---- ---- ------- ----- -- ----<br>-------- ------- -- ---------- --- - --- ----- ----- ----<br>---- --- --- ----- --- ---- ---- ------- ----- ---- -------<br>--- --- -- ----- -- --- ---- to --- ---- -- ------ ------<br>--- ----- -- ----,164728.26499998337,164727.71000000648,164342.245,164346.3450000272,164358.558,164741.457,,46,to
screen,html.Screen,2_1_0_1_47,2021-04-30T12:50:55.982Z,,,,,,,,,,,,,,,,,53,,,,,,,,,,,,,,919.0729999937466,,response,,,,99,,,,,,,Space,keypress(Space),,,,,,,,"---- -- ----- -- ------ - ------- --- ----------<br>------------- ------ ------ ---- ---- ------- ----- -- ----<br>-------- ------- -- ---------- --- - --- ----- ----- ----<br>---- --- --- ----- --- ---- ---- ------- ----- ---- -------<br>--- --- -- ----- -- --- ---- -- be, ---- -- ------ ------<br>--- ----- -- ----",165661.1050000065,165660.52999999374,164724.834,164728.39000000386,164741.457,165673.826,,47,"be,"
screen,html.Screen,2_1_0_1_48,2021-04-30T12:50:56.570Z,,,,,,,,,,,,,,,,,53,,,,,,,,,,,,,,574.5940000180854,,response,,,,99,,,,,,,Space,keypress(Space),,,,,,,,---- -- ----- -- ------ - ------- --- ----------<br>------------- ------ ------ ---- ---- ------- ----- -- ----<br>-------- ------- -- ---------- --- - --- ----- ----- ----<br>---- --- --- ----- --- ---- ---- ------- ----- ---- -------<br>--- --- -- ----- -- --- ---- -- --- even -- ------ ------<br>--- ----- -- ----,166248.96500003524,166248.4200000181,165657.064,165661.19000001345,165673.826,166256.518,,48,even
screen,html.Screen,2_1_0_1_49,2021-04-30T12:50:56.967Z,,,,,,,,,,,,,,,,,53,,,,,,,,,,,,,,388.537000029959,,response,,,,99,,,,,,,Space,keypress(Space),,,,,,,,---- -- ----- -- ------ - ------- --- ----------<br>------------- ------ ------ ---- ---- ------- ----- -- ----<br>-------- ------- -- ---------- --- - --- ----- ----- ----<br>---- --- --- ----- --- ---- ---- ------- ----- ---- -------<br>--- --- -- ----- -- --- ---- -- --- ---- if ------ ------<br>--- ----- -- ----,166645.61499998672,166645.05500002997,166240.075,166249.04999998398,166256.518,166656.398,,49,if
screen,html.Screen,2_1_0_1_50,2021-04-30T12:50:57.474Z,,,,,,,,,,,,,,,,,53,,,,,,,,,,,,,,495.79199999343837,,response,,,,99,,,,,,,Space,keypress(Space),,,,,,,,---- -- ----- -- ------ - ------- --- ----------<br>------------- ------ ------ ---- ---- ------- ----- -- ----<br>-------- ------- -- ---------- --- - --- ----- ----- ----<br>---- --- --- ----- --- ---- ---- ------- ----- ---- -------<br>--- --- -- ----- -- --- ---- -- --- ---- -- that's ------<br>--- ----- -- ----,167152.7000000351,167152.18999999342,166639.724,166645.70500003174,166656.398,167155.608,,50,that's
screen,html.Screen,2_1_0_1_51,2021-04-30T12:50:58.337Z,,,,,,,,,,,,,,,,,53,,,,,,,,,,,,,,859.6970000080764,,response,,,,99,,,,,,,Space,keypress(Space),,,,,,,,---- -- ----- -- ------ - ------- --- ----------<br>------------- ------ ------ ---- ---- ------- ----- -- ----<br>-------- ------- -- ---------- --- - --- ----- ----- ----<br>---- --- --- ----- --- ---- ---- ------- ----- ---- -------<br>--- --- -- ----- -- --- ---- -- --- ---- -- ------ really<br>--- ----- -- ----,168015.78499999596,168015.30500000808,167139.018,167152.8399999952,167155.608,168021.471,,51,really
screen,html.Screen,2_1_0_1_52,2021-04-30T12:50:58.784Z,,,,,,,,,,,,,,,,,53,,,,,,,,,,,,,,440.76399998451234,,response,,,,99,,,,,,,Space,keypress(Space),,,,,,,,---- -- ----- -- ------ - ------- --- ----------<br>------------- ------ ------ ---- ---- ------- ----- -- ----<br>-------- ------- -- ---------- --- - --- ----- ----- ----<br>---- --- --- ----- --- ---- ---- ------- ----- ---- -------<br>--- --- -- ----- -- --- ---- -- --- ---- -- ------ ------<br>not ----- -- ----,168462.86999998847,168462.2349999845,168004.975,168015.87500004098,168021.471,168471.775,,52,not
screen,html.Screen,2_1_0_1_53,2021-04-30T12:50:59.170Z,,,,,,,,,,,,,,,,,53,,,,,,,,,,,,,,376.10500001572655,,response,,,,99,,,,,,,Space,keypress(Space),,,,,,,,---- -- ----- -- ------ - ------- --- ----------<br>------------- ------ ------ ---- ---- ------- ----- -- ----<br>-------- ------- -- ---------- --- - --- ----- ----- ----<br>---- --- --- ----- --- ---- ---- ------- ----- ---- -------<br>--- --- -- ----- -- --- ---- -- --- ---- -- ------ ------<br>--- close -- ----,168848.3899999992,168847.88000001572,168454.69,168462.95499999542,168471.775,168854.333,,53,close
screen,html.Screen,2_1_0_1_54,2021-04-30T12:50:59.543Z,,,,,,,,,,,,,,,,,53,,,,,,,,,,,,,,366.612000008201,,response,,,,99,,,,,,,Space,keypress(Space),,,,,,,,---- -- ----- -- ------ - ------- --- ----------<br>------------- ------ ------ ---- ---- ------- ----- -- ----<br>-------- ------- -- ---------- --- - --- ----- ----- ----<br>---- --- --- ----- --- ---- ---- ------- ----- ---- -------<br>--- --- -- ----- -- --- ---- -- --- ---- -- ------ ------<br>--- ----- at ----,169221.46000002977,169220.9450000082,168837.417,168848.4949999838,168854.333,169237.443,,54,at
screen,html.Screen,2_1_0_1_55,2021-04-30T12:51:00.152Z,,,,,,,,,,,,,,,,,53,,,,,,,,,,,,,,592.3019999954558,,response,,,,99,,,,,,,Space,keypress(Space),,,,,,,,---- -- ----- -- ------ - ------- --- ----------<br>------------- ------ ------ ---- ---- ------- ----- -- ----<br>-------- ------- -- ---------- --- - --- ----- ----- ----<br>---- --- --- ----- --- ---- ---- ------- ----- ---- -------<br>--- --- -- ----- -- --- ---- -- --- ---- -- ------ ------<br>--- ----- -- all.,169830.3200000082,169829.74499999546,169220.416,169221.58499999205,169237.443,169836.442,,55,all.
Item 99,flow.Loop,2_1_0_1,2021-04-30T12:51:00.152Z,,,,,,,,,,,,,,,,,,,,,,,,,,,,,,,34777.51899999546,,completion,,,,,E,,,,,,,,,,,silence,,,,,169830.48499998404,169829.74499999546,135035.667,135036.4450000343,135052.226,169836.442,,,
Question 1,html.Screen,2_1_0_2,2021-04-30T12:51:05.154Z,,,,,,,,,,,,,,,,,,,,,,,,,,,,true,FALSE,,4995.628000004013,,response,,,,99,E,,,,,,FALSE,click #choice-2,,,,silence,,,,,174832.93999999296,174832.07000000402,169819.988,169830.55499999318,169836.442,174848.49,,,
Question 2,html.Screen,2_1_0_3,2021-04-30T12:51:09.895Z,,,,,,,,,,,,,,,,,,,,,,,,,,,,true,TRUE,,4724.760000015842,,response,,,,99,E,,,,,,TRUE,click #choice-1,,,,silence,,,,,179574.1000000271,179573.25000001583,174831.777,174833.03000003798,174848.49,179577.36,,,
Item 99,flow.Sequence,2_1_0,2021-04-30T12:51:09.896Z,,,,,,,,,,,,,,,,,,,,,,,,,,,,,,,54528.36000001583,,completion,,,,,,,,,,,,,,,,,,,,,179574.23500000732,179573.25000001583,125028.368,125044.4950000383,125044.89,179577.36,,,
Holding screen,html.Screen,2_1_1_0,2021-04-30T12:51:19.890Z,,,,,,,,,,,,,,,,,,,,,,,,,,,,,,,10007.645000000019,,timeout,,,,,,,,,,,,,,,,,,,,,189568.89500003308,189568.274,179561.019,179574.32499999413,179577.36,189585.005,,,
screen,html.Screen,2_1_1_1_0,2021-04-30T12:51:20.573Z,,,,,,,,,,,,,,,,,54,,,,,,,,,,,,,,665.9000000226079,,response,,,,100,,,,,,,Space,keypress(Space),,,,,,,,At --- ---- --- ------ ----- ------- ---- -- --- ------- --<br>------- ---------- ------ -- ----- -- ----- -- ---- ------<br>--- ----- --- --- ------ -------- ----- --- ------ ----- --<br>----- ----- ---------- --- --- ------ ------ ---- -- ------<br>------- --- ------ ----- --- ---- ------- -- ---- --- --<br>------- ------,190251.62500003353,190250.9050000226,189568.274,189569.0450000111,189585.005,190267.401,,0,At
screen,html.Screen,2_1_1_1_1,2021-04-30T12:51:21.212Z,,,,,,,,,,,,,,,,,54,,,,,,,,,,,,,,622.2439999883645,,response,,,,100,,,,,,,Space,keypress(Space),,,,,,,,-- the ---- --- ------ ----- ------- ---- -- --- ------- --<br>------- ---------- ------ -- ----- -- ----- -- ---- ------<br>--- ----- --- --- ------ -------- ----- --- ------ ----- --<br>----- ----- ---------- --- --- ------ ------ ---- -- ------<br>------- --- ------ ----- --- ---- ------- -- ---- --- --<br>------- ------,190890.31500002602,190889.64499998838,190250.774,190251.71000004048,190267.401,190900.391,,1,the
screen,html.Screen,2_1_1_1_2,2021-04-30T12:51:21.862Z,,,,,,,,,,,,,,,,,54,,,,,,,,,,,,,,639.4440000032191,,response,,,,100,,,,,,,Space,keypress(Space),,,,,,,,-- --- time --- ------ ----- ------- ---- -- --- ------- --<br>------- ---------- ------ -- ----- -- ----- -- ---- ------<br>--- ----- --- --- ------ -------- ----- --- ------ ----- --<br>----- ----- ---------- --- --- ------ ------ ---- -- ------<br>------- --- ------ ----- --- ---- ------- -- ---- --- --<br>------- ------,191540.29500001343,191539.83500000322,190883.732,190890.40500001283,190900.391,191549.803,,2,time
screen,html.Screen,2_1_1_1_3,2021-04-30T12:51:22.742Z,,,,,,,,,,,,,,,,,54,,,,,,,,,,,,,,870.3370000019786,,response,,,,100,,,,,,,Space,keypress(Space),,,,,,,,-- --- ---- the ------ ----- ------- ---- -- --- ------- --<br>------- ---------- ------ -- ----- -- ----- -- ---- ------<br>--- ----- --- --- ------ -------- ----- --- ------ ----- --<br>----- ----- ---------- --- --- ------ ------ ---- -- ------<br>------- --- ------ ----- --- ---- ------- -- ---- --- --<br>------- ------,192420.70499999681,192420.140000002,191532.993,191540.39000003831,191549.803,192432.086,,3,the
screen,html.Screen,2_1_1_1_4,2021-04-30T12:51:23.404Z,,,,,,,,,,,,,,,,,54,,,,,,,,,,,,,,650.2889999981271,,response,,,,100,,,,,,,Space,keypress(Space),,,,,,,,-- --- ---- --- French ----- ------- ---- -- --- ------- --<br>------- ---------- ------ -- ----- -- ----- -- ---- ------<br>--- ----- --- --- ------ -------- ----- --- ------ ----- --<br>----- ----- ---------- --- --- ------ ------ ---- -- ------<br>------- --- ------ ----- --- ---- ------- -- ---- --- --<br>------- ------,193082.90000003763,193082.37499999814,192415.656,192420.79000000376,192432.086,193098.074,,4,French
screen,html.Screen,2_1_1_1_5,2021-04-30T12:51:23.982Z,,,,,,,,,,,,,,,,,54,,,,,,,,,,,,,,562.3760000248731,,response,,,,100,,,,,,,Space,keypress(Space),,,,,,,,-- --- ---- --- ------ crown ------- ---- -- --- ------- --<br>------- ---------- ------ -- ----- -- ----- -- ---- ------<br>--- ----- --- --- ------ -------- ----- --- ------ ----- --<br>----- ----- ---------- --- --- ------ ------ ---- -- ------<br>------- --- ------ ----- --- ---- ------- -- ---- --- --<br>------- ------,193661.00500000175,193660.45000002487,193081.464,193082.98499998637,193098.074,193664.191,,5,crown
screen,html.Screen,2_1_1_1_6,2021-04-30T12:51:24.601Z,,,,,,,,,,,,,,,,,54,,,,,,,,,,,,,,614.8440000141272,,response,,,,100,,,,,,,Space,keypress(Space),,,,,,,,-- --- ---- --- ------ ----- secured ---- -- --- ------- --<br>------- ---------- ------ -- ----- -- ----- -- ---- ------<br>--- ----- --- --- ------ -------- ----- --- ------ ----- --<br>----- ----- ---------- --- --- ------ ------ ---- -- ------<br>------- --- ------ ----- --- ---- ------- -- ---- --- --<br>------- ------,194279.5599999954,194279.03500001412,193647.938,193661.0900000087,193664.191,194313.117,,6,secured
screen,html.Screen,2_1_1_1_7,2021-04-30T12:51:25.332Z,,,,,,,,,,,,,,,,,54,,,,,,,,,,,,,,696.8480000338459,,response,,,,100,,,,,,,Space,keypress(Space),,,,,,,,-- --- ---- --- ------ ----- ------- much -- --- ------- --<br>------- ---------- ------ -- ----- -- ----- -- ---- ------<br>--- ----- --- --- ------ -------- ----- --- ------ ----- --<br>----- ----- ---------- --- --- ------ ------ ---- -- ------<br>------- --- ------ ----- --- ---- ------- -- ---- --- --<br>------- ------,195010.45500003966,195009.96500003384,194263.631,194279.66000000015,194313.117,195012.912,,7,much
screen,html.Screen,2_1_1_1_8,2021-04-30T12:51:25.973Z,,,,,,,,,,,,,,,,,54,,,,,,,,,,,,,,638.2630000063218,,response,,,,100,,,,,,,Space,keypress(Space),,,,,,,,-- --- ---- --- ------ ----- ------- ---- of --- ------- --<br>------- ---------- ------ -- ----- -- ----- -- ---- ------<br>--- ----- --- --- ------ -------- ----- --- ------ ----- --<br>----- ----- ---------- --- --- ------ ------ ---- -- ------<br>------- --- ------ ----- --- ---- ------- -- ---- --- --<br>------- ------,195651.71000000555,195651.17500000633,194996.383,195010.54500002647,195012.912,195662.407,,8,of
screen,html.Screen,2_1_1_1_9,2021-04-30T12:51:26.419Z,,,,,,,,,,,,,,,,,54,,,,,,,,,,,,,,434.7129999912577,,response,,,,100,,,,,,,Space,keypress(Space),,,,,,,,-- --- ---- --- ------ ----- ------- ---- -- its ------- --<br>------- ---------- ------ -- ----- -- ----- -- ---- ------<br>--- ----- --- --- ------ -------- ----- --- ------ ----- --<br>----- ----- ---------- --- --- ------ ------ ---- -- ------<br>------- --- ------ ----- --- ---- ------- -- ---- --- --<br>------- ------,196097.6999999839,196097.11999999126,195645.679,195651.79999999236,195662.407,196112.183,,9,its
screen,html.Screen,2_1_1_1_10,2021-04-30T12:51:26.843Z,,,,,,,,,,,,,,,,,54,,,,,,,,,,,,,,408.6720000097703,,response,,,,100,,,,,,,Space,keypress(Space),,,,,,,,-- --- ---- --- ------ ----- ------- ---- -- --- revenue --<br>------- ---------- ------ -- ----- -- ----- -- ---- ------<br>--- ----- --- --- ------ -------- ----- --- ------ ----- --<br>----- ----- ---------- --- --- ------ ------ ---- -- ------<br>------- --- ------ ----- --- ---- ------- -- ---- --- --<br>------- ------,196521.30500000203,196520.85500000976,196095.659,196097.78000001097,196112.183,196528.223,,10,revenue
screen,html.Screen,2_1_1_1_11,2021-04-30T12:51:27.384Z,,,,,,,,,,,,,,,,,54,,,,,,,,,,,,,,533.5320000315551,,response,,,,100,,,,,,,Space,keypress(Space),,,,,,,,-- --- ---- --- ------ ----- ------- ---- -- --- ------- by<br>------- ---------- ------ -- ----- -- ----- -- ---- ------<br>--- ----- --- --- ------ -------- ----- --- ------ ----- --<br>----- ----- ---------- --- --- ------ ------ ---- -- ------<br>------- --- ------ ----- --- ---- ------- -- ---- --- --<br>------- ------,197062.3149999883,197061.75500003155,196511.806,196521.39000000898,196528.223,197077.719,,11,by
screen,html.Screen,2_1_1_1_12,2021-04-30T12:51:27.890Z,,,,,,,,,,,,,,,,,54,,,,,,,,,,,,,,490.50100001555984,,response,,,,100,,,,,,,Space,keypress(Space),,,,,,,,-- --- ---- --- ------ ----- ------- ---- -- --- ------- --<br>issuing ---------- ------ -- ----- -- ----- -- ---- ------<br>--- ----- --- --- ------ -------- ----- --- ------ ----- --<br>----- ----- ---------- --- --- ------ ------ ---- -- ------<br>------- --- ------ ----- --- ---- ------- -- ---- --- --<br>------- ------,197568.6899999855,197568.22000001557,197061.135,197062.43500002893,197077.719,197577.651,,12,issuing
screen,html.Screen,2_1_1_1_13,2021-04-30T12:51:28.580Z,,,,,,,,,,,,,,,,,54,,,,,,,,,,,,,,680.6790000405745,,response,,,,100,,,,,,,Space,keypress(Space),,,,,,,,-- --- ---- --- ------ ----- ------- ---- -- --- ------- --<br>------- government ------ -- ----- -- ----- -- ---- ------<br>--- ----- --- --- ------ -------- ----- --- ------ ----- --<br>----- ----- ---------- --- --- ------ ------ ---- -- ------<br>------- --- ------ ----- --- ---- ------- -- ---- --- --<br>------- ------,198258.88500001747,198258.3300000406,197560.882,197568.77499999246,197577.651,198291.552,,13,government
screen,html.Screen,2_1_1_1_14,2021-04-30T12:51:29.654Z,,,,,,,,,,,,,,,,,54,,,,,,,,,,,,,,1040.9129999849538,,response,,,,100,,,,,,,Space,keypress(Space),,,,,,,,-- --- ---- --- ------ ----- ------- ---- -- --- ------- --<br>------- ---------- bonds. -- ----- -- ----- -- ---- ------<br>--- ----- --- --- ------ -------- ----- --- ------ ----- --<br>----- ----- ---------- --- --- ------ ------ ---- -- ------<br>------- --- ------ ----- --- ---- ------- -- ---- --- --<br>------- ------,199333.03500001784,199332.46499998495,198243.443,198258.98500002222,198291.552,199342.512,,14,bonds.
screen,html.Screen,2_1_1_1_15,2021-04-30T12:51:30.182Z,,,,,,,,,,,,,,,,,54,,,,,,,,,,,,,,517.553000015323,,response,,,,100,,,,,,,Space,keypress(Space),,,,,,,,-- --- ---- --- ------ ----- ------- ---- -- --- ------- --<br>------- ---------- ------ In ----- -- ----- -- ---- ------<br>--- ----- --- --- ------ -------- ----- --- ------ ----- --<br>----- ----- ---------- --- --- ------ ------ ---- -- ------<br>------- --- ------ ----- --- ---- ------- -- ---- --- --<br>------- ------,199860.63000001013,199860.0650000153,199325.908,199333.1200000248,199342.512,199875.113,,15,In
screen,html.Screen,2_1_1_1_16,2021-04-30T12:51:30.944Z,,,,,,,,,,,,,,,,,54,,,,,,,,,,,,,,747.0820000035455,,response,,,,100,,,,,,,Space,keypress(Space),,,,,,,,"-- --- ---- --- ------ ----- ------- ---- -- --- ------- --<br>------- ---------- ------ -- 1727, -- ----- -- ---- ------<br>--- ----- --- --- ------ -------- ----- --- ------ ----- --<br>----- ----- ---------- --- --- ------ ------ ---- -- ------<br>------- --- ------ ----- --- ---- ------- -- ---- --- --<br>------- ------",200622.75500001851,200622.19500000356,199858.609,199860.71500001708,199875.113,200624.348,,16,"1727,"
screen,html.Screen,2_1_1_1_17,2021-04-30T12:51:31.388Z,,,,,,,,,,,,,,,,,54,,,,,,,,,,,,,,442.09200002416037,,response,,,,100,,,,,,,Space,keypress(Space),,,,,,,,-- --- ---- --- ------ ----- ------- ---- -- --- ------- --<br>------- ---------- ------ -- ----- in ----- -- ---- ------<br>--- ----- --- --- ------ -------- ----- --- ------ ----- --<br>----- ----- ---------- --- --- ------ ------ ---- -- ------<br>------- --- ------ ----- --- ---- ------- -- ---- --- --<br>------- ------,201067.08499998786,201066.44000002416,200608.002,200622.84000002546,200624.348,201074.279,,17,in
screen,html.Screen,2_1_1_1_18,2021-04-30T12:51:31.938Z,,,,,,,,,,,,,,,,,54,,,,,,,,,,,,,,541.8660000363307,,response,,,,100,,,,,,,Space,keypress(Space),,,,,,,,-- --- ---- --- ------ ----- ------- ---- -- --- ------- --<br>------- ---------- ------ -- ----- -- order -- ---- ------<br>--- ----- --- --- ------ -------- ----- --- ------ ----- --<br>----- ----- ---------- --- --- ------ ------ ---- -- ------<br>------- --- ------ ----- --- ---- ------- -- ---- --- --<br>------- ------,201616.65000003995,201616.14500003634,201057.539,201067.24000000395,201074.279,201623.584,,18,order
screen,html.Screen,2_1_1_1_19,2021-04-30T12:51:32.497Z,,,,,,,,,,,,,,,,,54,,,,,,,,,,,,,,552.0359999945213,,response,,,,100,,,,,,,Space,keypress(Space),,,,,,,,-- --- ---- --- ------ ----- ------- ---- -- --- ------- --<br>------- ---------- ------ -- ----- -- ----- to ---- ------<br>--- ----- --- --- ------ -------- ----- --- ------ ----- --<br>----- ----- ---------- --- --- ------ ------ ---- -- ------<br>------- --- ------ ----- --- ---- ------- -- ---- --- --<br>------- ------,202176.21000000509,202175.61999999452,201606.982,201616.7349999887,201623.584,202189.738,,19,to
screen,html.Screen,2_1_1_1_20,2021-04-30T12:51:33.055Z,,,,,,,,,,,,,,,,,54,,,,,,,,,,,,,,543.2170000140322,,response,,,,100,,,,,,,Space,keypress(Space),,,,,,,,-- --- ---- --- ------ ----- ------- ---- -- --- ------- --<br>------- ---------- ------ -- ----- -- ----- -- save ------<br>--- ----- --- --- ------ -------- ----- --- ------ ----- --<br>----- ----- ---------- --- --- ------ ------ ---- -- ------<br>------- --- ------ ----- --- ---- ------- -- ---- --- --<br>------- ------,202733.5000000312,202732.95500001404,202173.246,202176.29500001203,202189.738,202739.039,,20,save
screen,html.Screen,2_1_1_1_21,2021-04-30T12:51:33.714Z,,,,,,,,,,,,,,,,,54,,,,,,,,,,,,,,653.546000023256,,response,,,,100,,,,,,,Space,keypress(Space),,,,,,,,"-- --- ---- --- ------ ----- ------- ---- -- --- ------- --<br>------- ---------- ------ -- ----- -- ----- -- ---- money,<br>--- ----- --- --- ------ -------- ----- --- ------ ----- --<br>----- ----- ---------- --- --- ------ ------ ---- -- ------<br>------- --- ------ ----- --- ---- ------- -- ---- --- --<br>------- ------",203393.15499999793,203392.58500002325,202722.749,202733.58500003815,202739.039,203405.157,,21,"money,"
screen,html.Screen,2_1_1_1_22,2021-04-30T12:51:34.648Z,,,,,,,,,,,,,,,,,54,,,,,,,,,,,,,,920.9879999990808,,response,,,,100,,,,,,,Space,keypress(Space),,,,,,,,-- --- ---- --- ------ ----- ------- ---- -- --- ------- --<br>------- ---------- ------ -- ----- -- ----- -- ---- ------<br>the ----- --- --- ------ -------- ----- --- ------ ----- --<br>----- ----- ---------- --- --- ------ ------ ---- -- ------<br>------- --- ------ ----- --- ---- ------- -- ---- --- --<br>------- ------,204326.7099999939,204326.1449999991,203388.51,203393.24000000488,203405.157,204337.875,,22,the
screen,html.Screen,2_1_1_1_23,2021-04-30T12:51:35.277Z,,,,,,,,,,,,,,,,,54,,,,,,,,,,,,,,617.2500000367872,,response,,,,100,,,,,,,Space,keypress(Space),,,,,,,,-- --- ---- --- ------ ----- ------- ---- -- --- ------- --<br>------- ---------- ------ -- ----- -- ----- -- ---- ------<br>--- state --- --- ------ -------- ----- --- ------ ----- --<br>----- ----- ---------- --- --- ------ ------ ---- -- ------<br>------- --- ------ ----- --- ---- ------- -- ---- --- --<br>------- ------,204955.72999998694,204955.1250000368,204321.196,204326.79500000086,204337.875,204970.706,,23,state
screen,html.Screen,2_1_1_1_24,2021-04-30T12:51:35.713Z,,,,,,,,,,,,,,,,,54,,,,,,,,,,,,,,420.36899999226443,,response,,,,100,,,,,,,Space,keypress(Space),,,,,,,,-- --- ---- --- ------ ----- ------- ---- -- --- ------- --<br>------- ---------- ------ -- ----- -- ----- -- ---- ------<br>--- ----- cut --- ------ -------- ----- --- ------ ----- --<br>----- ----- ---------- --- --- ------ ------ ---- -- ------<br>------- --- ------ ----- --- ---- ------- -- ---- --- --<br>------- ------,205391.60500001162,205391.07499999227,204953.981,204955.83500002977,204970.706,205403.753,,24,cut
screen,html.Screen,2_1_1_1_25,2021-04-30T12:51:36.140Z,,,,,,,,,,,,,,,,,54,,,,,,,,,,,,,,414.4320000401058,,response,,,,100,,,,,,,Space,keypress(Space),,,,,,,,-- --- ---- --- ------ ----- ------- ---- -- --- ------- --<br>------- ---------- ------ -- ----- -- ----- -- ---- ------<br>--- ----- --- the ------ -------- ----- --- ------ ----- --<br>----- ----- ---------- --- --- ------ ------ ---- -- ------<br>------- --- ------ ----- --- ---- ------- -- ---- --- --<br>------- ------,205818.73500003712,205818.1850000401,205386.747,205391.69000001857,205403.753,205845.96,,25,the
screen,html.Screen,2_1_1_1_26,2021-04-30T12:51:36.828Z,,,,,,,,,,,,,,,,,54,,,,,,,,,,,,,,660.5449999975681,,response,,,,100,,,,,,,Space,keypress(Space),,,,,,,,-- --- ---- --- ------ ----- ------- ---- -- --- ------- --<br>------- ---------- ------ -- ----- -- ----- -- ---- ------<br>--- ----- --- --- bonds' -------- ----- --- ------ ----- --<br>----- ----- ---------- --- --- ------ ------ ---- -- ------<br>------- --- ------ ----- --- ---- ------- -- ---- --- --<br>------- ------,206507.01500003925,206506.50499999756,205802.885,205818.88000003528,205845.96,206518.912,,26,bonds'
screen,html.Screen,2_1_1_1_27,2021-04-30T12:51:37.246Z,,,,,,,,,,,,,,,,,54,,,,,,,,,,,,,,405.24799999501556,,response,,,,100,,,,,,,Space,keypress(Space),,,,,,,,-- --- ---- --- ------ ----- ------- ---- -- --- ------- --<br>------- ---------- ------ -- ----- -- ----- -- ---- ------<br>--- ----- --- --- ------ interest ----- --- ------ ----- --<br>----- ----- ---------- --- --- ------ ------ ---- -- ------<br>------- --- ------ ----- --- ---- ------- -- ---- --- --<br>------- ------,206924.7800000012,206924.15999999503,206502.233,206507.099999988,206518.912,206935.203,,27,interest
screen,html.Screen,2_1_1_1_28,2021-04-30T12:51:37.682Z,,,,,,,,,,,,,,,,,54,,,,,,,,,,,,,,424.98199999771896,,response,,,,100,,,,,,,Space,keypress(Space),,,,,,,,-- --- ---- --- ------ ----- ------- ---- -- --- ------- --<br>------- ---------- ------ -- ----- -- ----- -- ---- ------<br>--- ----- --- --- ------ -------- rate. --- ------ ----- --<br>----- ----- ---------- --- --- ------ ------ ---- -- ------<br>------- --- ------ ----- --- ---- ------- -- ---- --- --<br>------- ------,207360.74999999255,207360.18499999773,206918.774,206924.89000002388,206935.203,207368.097,,28,rate.
screen,html.Screen,2_1_1_1_29,2021-04-30T12:51:38.088Z,,,,,,,,,,,,,,,,,54,,,,,,,,,,,,,,397.96800003253156,,response,,,,100,,,,,,,Space,keypress(Space),,,,,,,,-- --- ---- --- ------ ----- ------- ---- -- --- ------- --<br>------- ---------- ------ -- ----- -- ----- -- ---- ------<br>--- ----- --- --- ------ -------- ----- The ------ ----- --<br>----- ----- ---------- --- --- ------ ------ ---- -- ------<br>------- --- ------ ----- --- ---- ------- -- ---- --- --<br>------- ------,207766.5949999937,207766.06500003254,207351.573,207360.83000001963,207368.097,207799.582,,29,The
screen,html.Screen,2_1_1_1_30,2021-04-30T12:51:38.514Z,,,,,,,,,,,,,,,,,54,,,,,,,,,,,,,,392.25300000509014,,response,,,,100,,,,,,,Space,keypress(Space),,,,,,,,-- --- ---- --- ------ ----- ------- ---- -- --- ------- --<br>------- ---------- ------ -- ----- -- ----- -- ---- ------<br>--- ----- --- --- ------ -------- ----- --- market ----- --<br>----- ----- ---------- --- --- ------ ------ ---- -- ------<br>------- --- ------ ----- --- ---- ------- -- ---- --- --<br>------- ------,208192.27500003763,208191.83500000509,207751.69,207766.6850000387,207799.582,208200.903,,30,market
screen,html.Screen,2_1_1_1_31,2021-04-30T12:51:38.971Z,,,,,,,,,,,,,,,,,54,,,,,,,,,,,,,,447.8769999886281,,response,,,,100,,,,,,,Space,keypress(Space),,,,,,,,-- --- ---- --- ------ ----- ------- ---- -- --- ------- --<br>------- ---------- ------ -- ----- -- ----- -- ---- ------<br>--- ----- --- --- ------ -------- ----- --- ------ value --<br>----- ----- ---------- --- --- ------ ------ ---- -- ------<br>------- --- ------ ----- --- ---- ------- -- ---- --- --<br>------- ------,208649.3050000281,208648.77999998862,208184.255,208192.35999998637,208200.903,208675.471,,31,value
screen,html.Screen,2_1_1_1_32,2021-04-30T12:51:39.435Z,,,,,,,,,,,,,,,,,54,,,,,,,,,,,,,,438.0940000069386,,response,,,,100,,,,,,,Space,keypress(Space),,,,,,,,-- --- ---- --- ------ ----- ------- ---- -- --- ------- --<br>------- ---------- ------ -- ----- -- ----- -- ---- ------<br>--- ----- --- --- ------ -------- ----- --- ------ ----- of<br>----- ----- ---------- --- --- ------ ------ ---- -- ------<br>------- --- ------ ----- --- ---- ------- -- ---- --- --<br>------- ------,209114.15999999736,209113.56500000693,208633.874,208649.39999999478,208675.471,209116.418,,32,of
screen,html.Screen,2_1_1_1_33,2021-04-30T12:51:39.883Z,,,,,,,,,,,,,,,,,54,,,,,,,,,,,,,,444.3470000019879,,response,,,,100,,,,,,,Space,keypress(Space),,,,,,,,-- --- ---- --- ------ ----- ------- ---- -- --- ------- --<br>------- ---------- ------ -- ----- -- ----- -- ---- ------<br>--- ----- --- --- ------ -------- ----- --- ------ ----- --<br>these ----- ---------- --- --- ------ ------ ---- -- ------<br>------- --- ------ ----- --- ---- ------- -- ---- --- --<br>------- ------,209561.314999999,209560.765000002,209100.116,209114.26500004018,209116.418,209566.188,,33,these
screen,html.Screen,2_1_1_1_34,2021-04-30T12:51:40.249Z,,,,,,,,,,,,,,,,,54,,,,,,,,,,,,,,361.392000017775,,response,,,,100,,,,,,,Space,keypress(Space),,,,,,,,-- --- ---- --- ------ ----- ------- ---- -- --- ------- --<br>------- ---------- ------ -- ----- -- ----- -- ---- ------<br>--- ----- --- --- ------ -------- ----- --- ------ ----- --<br>----- bonds ---------- --- --- ------ ------ ---- -- ------<br>------- --- ------ ----- --- ---- ------- -- ---- --- --<br>------- ------,209928.17999998806,209927.58000001777,209549.796,209561.40000000596,209566.188,209932.597,,34,bonds
screen,html.Screen,2_1_1_1_35,2021-04-30T12:51:40.927Z,,,,,,,,,,,,,,,,,54,,,,,,,,,,,,,,672.8680000296445,,response,,,,100,,,,,,,Space,keypress(Space),,,,,,,,"-- --- ---- --- ------ ----- ------- ---- -- --- ------- --<br>------- ---------- ------ -- ----- -- ----- -- ---- ------<br>--- ----- --- --- ------ -------- ----- --- ------ ----- --<br>----- ----- plummeted, --- --- ------ ------ ---- -- ------<br>------- --- ------ ----- --- ---- ------- -- ---- --- --<br>------- ------",210605.98500003107,210605.46500002965,209915.831,209928.264999995,209932.597,210615.412,,35,"plummeted,"
screen,html.Screen,2_1_1_1_36,2021-04-30T12:51:41.841Z,,,,,,,,,,,,,,,,,54,,,,,,,,,,,,,,903.6580000384711,,response,,,,100,,,,,,,Space,keypress(Space),,,,,,,,-- --- ---- --- ------ ----- ------- ---- -- --- ------- --<br>------- ---------- ------ -- ----- -- ----- -- ---- ------<br>--- ----- --- --- ------ -------- ----- --- ------ ----- --<br>----- ----- ---------- and --- ------ ------ ---- -- ------<br>------- --- ------ ----- --- ---- ------- -- ---- --- --<br>------- ------,211519.65500001097,211519.07000003848,210598.755,210606.06499999994,210615.412,211530.928,,36,and
screen,html.Screen,2_1_1_1_37,2021-04-30T12:51:42.613Z,,,,,,,,,,,,,,,,,54,,,,,,,,,,,,,,760.7469999858295,,response,,,,100,,,,,,,Space,keypress(Space),,,,,,,,-- --- ---- --- ------ ----- ------- ---- -- --- ------- --<br>------- ---------- ------ -- ----- -- ----- -- ---- ------<br>--- ----- --- --- ------ -------- ----- --- ------ ----- --<br>----- ----- ---------- --- the ------ ------ ---- -- ------<br>------- --- ------ ----- --- ---- ------- -- ---- --- --<br>------- ------,212292.20999998506,212291.67499998584,211514.296,211519.7749999934,211530.928,212296.834,,37,the
screen,html.Screen,2_1_1_1_38,2021-04-30T12:51:43.161Z,,,,,,,,,,,,,,,,,54,,,,,,,,,,,,,,542.8409999956202,,response,,,,100,,,,,,,Space,keypress(Space),,,,,,,,-- --- ---- --- ------ ----- ------- ---- -- --- ------- --<br>------- ---------- ------ -- ----- -- ----- -- ---- ------<br>--- ----- --- --- ------ -------- ----- --- ------ ----- --<br>----- ----- ---------- --- --- market ------ ---- -- ------<br>------- --- ------ ----- --- ---- ------- -- ---- --- --<br>------- ------,212840.23000003072,212839.67499999562,212280.558,212292.3249999876,212296.834,212846.447,,38,market
screen,html.Screen,2_1_1_1_39,2021-04-30T12:51:43.569Z,,,,,,,,,,,,,,,,,54,,,,,,,,,,,,,,400.43800002959324,,response,,,,100,,,,,,,Space,keypress(Space),,,,,,,,-- --- ---- --- ------ ----- ------- ---- -- --- ------- --<br>------- ---------- ------ -- ----- -- ----- -- ---- ------<br>--- ----- --- --- ------ -------- ----- --- ------ ----- --<br>----- ----- ---------- --- --- ------ became ---- -- ------<br>------- --- ------ ----- --- ---- ------- -- ---- --- --<br>------- ------,213247.49000003794,213246.88500002958,212829.957,212840.354999993,212846.447,213262.998,,39,became
screen,html.Screen,2_1_1_1_40,2021-04-30T12:51:44.005Z,,,,,,,,,,,,,,,,,54,,,,,,,,,,,,,,420.2070000084641,,response,,,,100,,,,,,,Space,keypress(Space),,,,,,,,-- --- ---- --- ------ ----- ------- ---- -- --- ------- --<br>------- ---------- ------ -- ----- -- ----- -- ---- ------<br>--- ----- --- --- ------ -------- ----- --- ------ ----- --<br>----- ----- ---------- --- --- ------ ------ wary -- ------<br>------- --- ------ ----- --- ---- ------- -- ---- --- --<br>------- ------,213683.75500000548,213683.20500000846,213246.477,213247.6050000405,213262.998,213695.818,,40,wary
screen,html.Screen,2_1_1_1_41,2021-04-30T12:51:44.408Z,,,,,,,,,,,,,,,,,54,,,,,,,,,,,,,,390.5420000157028,,response,,,,100,,,,,,,Space,keypress(Space),,,,,,,,-- --- ---- --- ------ ----- ------- ---- -- --- ------- --<br>------- ---------- ------ -- ----- -- ----- -- ---- ------<br>--- ----- --- --- ------ -------- ----- --- ------ ----- --<br>----- ----- ---------- --- --- ------ ------ ---- of ------<br>------- --- ------ ----- --- ---- ------- -- ---- --- --<br>------- ------,214086.91000001272,214086.3600000157,213679.184,213683.8449999923,213695.818,214095.158,,41,of
screen,html.Screen,2_1_1_1_42,2021-04-30T12:51:45.029Z,,,,,,,,,,,,,,,,,54,,,,,,,,,,,,,,612.3120000230265,,response,,,,100,,,,,,,Space,keypress(Space),,,,,,,,-- --- ---- --- ------ ----- ------- ---- -- --- ------- --<br>------- ---------- ------ -- ----- -- ----- -- ---- ------<br>--- ----- --- --- ------ -------- ----- --- ------ ----- --<br>----- ----- ---------- --- --- ------ ------ ---- -- French<br>------- --- ------ ----- --- ---- ------- -- ---- --- --<br>------- ------,214708.06000003358,214707.47000002302,214078.61,214086.9900000398,214095.158,214711.225,,42,French
screen,html.Screen,2_1_1_1_43,2021-04-30T12:51:45.412Z,,,,,,,,,,,,,,,,,54,,,,,,,,,,,,,,379.63000001673936,,response,,,,100,,,,,,,Space,keypress(Space),,,,,,,,-- --- ---- --- ------ ----- ------- ---- -- --- ------- --<br>------- ---------- ------ -- ----- -- ----- -- ---- ------<br>--- ----- --- --- ------ -------- ----- --- ------ ----- --<br>----- ----- ---------- --- --- ------ ------ ---- -- ------<br>credit. --- ------ ----- --- ---- ------- -- ---- --- --<br>------- ------,215091.24999999767,215090.85500001675,214694.85,214708.1650000182,214711.225,215094.205,,43,credit.
screen,html.Screen,2_1_1_1_44,2021-04-30T12:51:46.033Z,,,,,,,,,,,,,,,,,54,,,,,,,,,,,,,,617.3550000252144,,response,,,,100,,,,,,,Space,keypress(Space),,,,,,,,-- --- ---- --- ------ ----- ------- ---- -- --- ------- --<br>------- ---------- ------ -- ----- -- ----- -- ---- ------<br>--- ----- --- --- ------ -------- ----- --- ------ ----- --<br>----- ----- ---------- --- --- ------ ------ ---- -- ------<br>------- The ------ ----- --- ---- ------- -- ---- --- --<br>------- ------,215712.07499998854,215711.5600000252,215077.812,215091.33999998448,215094.205,215727.21,,44,The
screen,html.Screen,2_1_1_1_45,2021-04-30T12:51:46.326Z,,,,,,,,,,,,,,,,,54,,,,,,,,,,,,,,277.34499999225955,,response,,,,100,,,,,,,Space,keypress(Space),,,,,,,,-- --- ---- --- ------ ----- ------- ---- -- --- ------- --<br>------- ---------- ------ -- ----- -- ----- -- ---- ------<br>--- ----- --- --- ------ -------- ----- --- ------ ----- --<br>----- ----- ---------- --- --- ------ ------ ---- -- ------<br>------- --- French ----- --- ---- ------- -- ---- --- --<br>------- ------,216005.16000000061,216004.55499999225,215710.549,215712.1599999955,215727.21,216010.106,,45,French
screen,html.Screen,2_1_1_1_46,2021-04-30T12:51:46.722Z,,,,,,,,,,,,,,,,,54,,,,,,,,,,,,,,390.3489999954181,,response,,,,100,,,,,,,Space,keypress(Space),,,,,,,,-- --- ---- --- ------ ----- ------- ---- -- --- ------- --<br>------- ---------- ------ -- ----- -- ----- -- ---- ------<br>--- ----- --- --- ------ -------- ----- --- ------ ----- --<br>----- ----- ---------- --- --- ------ ------ ---- -- ------<br>------- --- ------ state --- ---- ------- -- ---- --- --<br>------- ------,216401.01999999024,216400.45499999542,215993.816,216005.26499998523,216010.106,216410.002,,46,state
screen,html.Screen,2_1_1_1_47,2021-04-30T12:51:47.128Z,,,,,,,,,,,,,,,,,54,,,,,,,,,,,,,,396.20300002986914,,response,,,,100,,,,,,,Space,keypress(Space),,,,,,,,-- --- ---- --- ------ ----- ------- ---- -- --- ------- --<br>------- ---------- ------ -- ----- -- ----- -- ---- ------<br>--- ----- --- --- ------ -------- ----- --- ------ ----- --<br>----- ----- ---------- --- --- ------ ------ ---- -- ------<br>------- --- ------ ----- was ---- ------- -- ---- --- --<br>------- ------,216806.7550000269,216806.20500002988,216393.192,216401.11000003526,216410.002,216809.254,,47,was
screen,html.Screen,2_1_1_1_48,2021-04-30T12:51:47.471Z,,,,,,,,,,,,,,,,,54,,,,,,,,,,,,,,339.9159999896947,,response,,,,100,,,,,,,Space,keypress(Space),,,,,,,,-- --- ---- --- ------ ----- ------- ---- -- --- ------- --<br>------- ---------- ------ -- ----- -- ----- -- ---- ------<br>--- ----- --- --- ------ -------- ----- --- ------ ----- --<br>----- ----- ---------- --- --- ------ ------ ---- -- ------<br>------- --- ------ ----- --- left ------- -- ---- --- --<br>------- ------,217149.72500002477,217149.16999998968,216793.308,216806.84000003384,216809.254,217158.989,,48,left
screen,html.Screen,2_1_1_1_49,2021-04-30T12:51:47.796Z,,,,,,,,,,,,,,,,,54,,,,,,,,,,,,,,315.47099999763304,,response,,,,100,,,,,,,Space,keypress(Space),,,,,,,,-- --- ---- --- ------ ----- ------- ---- -- --- ------- --<br>------- ---------- ------ -- ----- -- ----- -- ---- ------<br>--- ----- --- --- ------ -------- ----- --- ------ ----- --<br>----- ----- ---------- --- --- ------ ------ ---- -- ------<br>------- --- ------ ----- --- ---- without -- ---- --- --<br>------- ------,217475.00000003492,217474.45999999763,217142.887,217149.81000003172,217158.989,217492.437,,49,without
screen,html.Screen,2_1_1_1_50,2021-04-30T12:51:48.244Z,,,,,,,,,,,,,,,,,54,,,,,,,,,,,,,,429.42300000219257,,response,,,,100,,,,,,,Space,keypress(Space),,,,,,,,-- --- ---- --- ------ ----- ------- ---- -- --- ------- --<br>------- ---------- ------ -- ----- -- ----- -- ---- ------<br>--- ----- --- --- ------ -------- ----- --- ------ ----- --<br>----- ----- ---------- --- --- ------ ------ ---- -- ------<br>------- --- ------ ----- --- ---- ------- an ---- --- --<br>------- ------,217922.40999999922,217921.8600000022,217459.168,217475.0950000016,217492.437,217924.867,,50,an
screen,html.Screen,2_1_1_1_51,2021-04-30T12:51:48.700Z,,,,,,,,,,,,,,,,,54,,,,,,,,,,,,,,453.20300003522425,,response,,,,100,,,,,,,Space,keypress(Space),,,,,,,,-- --- ---- --- ------ ----- ------- ---- -- --- ------- --<br>------- ---------- ------ -- ----- -- ----- -- ---- ------<br>--- ----- --- --- ------ -------- ----- --- ------ ----- --<br>----- ----- ---------- --- --- ------ ------ ---- -- ------<br>------- --- ------ ----- --- ---- ------- -- easy --- --<br>------- ------,218378.6550000077,218378.07000003522,217908.508,217922.49999998603,217924.867,218391.385,,51,easy
screen,html.Screen,2_1_1_1_52,2021-04-30T12:51:49.086Z,,,,,,,,,,,,,,,,,54,,,,,,,,,,,,,,373.0950000125449,,response,,,,100,,,,,,,Space,keypress(Space),,,,,,,,-- --- ---- --- ------ ----- ------- ---- -- --- ------- --<br>------- ---------- ------ -- ----- -- ----- -- ---- ------<br>--- ----- --- --- ------ -------- ----- --- ------ ----- --<br>----- ----- ---------- --- --- ------ ------ ---- -- ------<br>------- --- ------ ----- --- ---- ------- -- ---- way --<br>------- ------,218764.98500001617,218764.48000001255,218374.782,218378.77499999013,218391.385,218774.259,,52,way
screen,html.Screen,2_1_1_1_53,2021-04-30T12:51:49.471Z,,,,,,,,,,,,,,,,,54,,,,,,,,,,,,,,374.4960000310966,,response,,,,100,,,,,,,Space,keypress(Space),,,,,,,,-- --- ---- --- ------ ----- ------- ---- -- --- ------- --<br>------- ---------- ------ -- ----- -- ----- -- ---- ------<br>--- ----- --- --- ------ -------- ----- --- ------ ----- --<br>----- ----- ---------- --- --- ------ ------ ---- -- ------<br>------- --- ------ ----- --- ---- ------- -- ---- --- of<br>------- ------,219149.29500001017,219148.7550000311,218757.68,218765.07000002312,218774.259,219157.339,,53,of
screen,html.Screen,2_1_1_1_54,2021-04-30T12:51:50.091Z,,,,,,,,,,,,,,,,,54,,,,,,,,,,,,,,611.9210000300372,,response,,,,100,,,,,,,Space,keypress(Space),,,,,,,,-- --- ---- --- ------ ----- ------- ---- -- --- ------- --<br>------- ---------- ------ -- ----- -- ----- -- ---- ------<br>--- ----- --- --- ------ -------- ----- --- ------ ----- --<br>----- ----- ---------- --- --- ------ ------ ---- -- ------<br>------- --- ------ ----- --- ---- ------- -- ---- --- --<br>raising ------,219769.82500002487,219769.26000003004,219140.619,219149.39500001492,219157.339,219773.278,,54,raising
screen,html.Screen,2_1_1_1_55,2021-04-30T12:51:50.514Z,,,,,,,,,,,,,,,,,54,,,,,,,,,,,,,,419.3720000408939,,response,,,,100,,,,,,,Space,keypress(Space),,,,,,,,-- --- ---- --- ------ ----- ------- ---- -- --- ------- --<br>------- ---------- ------ -- ----- -- ----- -- ---- ------<br>--- ----- --- --- ------ -------- ----- --- ------ ----- --<br>----- ----- ---------- --- --- ------ ------ ---- -- ------<br>------- --- ------ ----- --- ---- ------- -- ---- --- --<br>------- money.,220193.2000000379,220192.65000004089,219756.95,219769.92500002962,219773.278,220206.421,,55,money.
Item 100,flow.Loop,2_1_1_1,2021-04-30T12:51:50.515Z,,,,,,,,,,,,,,,,,,,,,,,,,,,,,,,30607.64500004088,,completion,,,,,E,,,,,,,,,,,silence,,,,,220193.3699999936,220192.65000004089,189568.274,189569.0150000155,189585.005,220206.421,,,
Question 1,html.Screen,2_1_1_2,2021-04-30T12:51:52.975Z,,,,,,,,,,,,,,,,,,,,,,,,,,,,true,TRUE,,2446.1289999988803,,response,,,,100,E,,,,,,TRUE,click #choice-1,,,,silence,,,,,222653.3950000303,222652.54999999888,220189.808,220193.4299999848,220206.421,222685.063,,,
Question 2,html.Screen,2_1_1_3,2021-04-30T12:51:55.412Z,,,,,,,,,,,,,,,,,,,,,,,,,,,,true,FALSE,,2405.237000039866,,response,,,,100,E,,,,,,FALSE,click #choice-2,,,,silence,,,,,225091.0000000149,225090.30000003986,222637.347,222653.51000003284,222685.063,225101.52,,,
Item 100,flow.Sequence,2_1_1,2021-04-30T12:51:55.412Z,,,,,,,,,,,,,,,,,,,,,,,,,,,,,,,45512.940000039875,,completion,,,,,,,,,,,,,,,,,,,,,225091.13000001526,225090.30000003986,179561.019,179574.29499999853,179577.36,225101.52,,,
End of Practice,html.Page,2_1_2,2021-04-30T12:52:01.197Z,,,,,,,,,,,,,,,,,,,,,,,,,,,,,,,5774.159999997384,,form submission,,,,,,,,,,,,,,,,,,,,,230875.875000027,230875.67999999737,225085.823,225091.2150000222,225101.52,230879.472,,,
Practice,flow.Sequence,2_1,2021-04-30T12:52:01.197Z,,,,,,,,,,,,,,,,,,,,,,,,,,,,,,,105830.78999999737,,completion,,,,,,,,,,,,,,,,,,,,,230876.05000002077,230875.67999999737,125028.368,125044.46499998448,125044.89,230879.472,,,
Trap_instruction,html.Page,2_2_0,2021-04-30T12:52:04.774Z,,,,,,,,,,,,,,,,,,,,,,,,,,,,,,,3573.2580000190646,,form submission,,,,,,,,,,,,,,,,,,,,,234452.91500003077,234452.73000001907,230862.956,230876.14000000758,230879.472,234459.49,,,
trap_trial,html.Screen,2_2_1,2021-04-30T12:52:08.090Z,,,,,,,,,,,,,,,,,,,,,,,,,,,,true,1,,3308.7000000316184,,response,,,,,,,,,,,1,click #choice-1,,,,,,,,,237769.09000001615,237768.1900000316,234442.988,234453.00000003772,234459.49,237773.016,,,
end of trap trial,html.Page,2_2_2,2021-04-30T12:52:09.756Z,,,,,,,,,,,,,,,,,,,,,,,,,,,,,,,1661.8040000240435,,form submission,,,,,,,,,,,,,,,,,,,,,239434.97500004014,239434.82000002405,237756.796,237769.18499998283,237773.016,239438.17,,,
Trap 1,flow.Sequence,2_2,2021-04-30T12:52:09.756Z,,,,,,,,,,,,,,,,,,,,,,,,,,,,,,,8555.348000024038,,completion,,,,,,,,,,,,,,,,,,,,,239435.09500002256,239434.82000002405,230862.956,230876.1200000299,230879.472,239438.17,,,
Standby,html.Page,2_3_0,2021-04-30T12:52:17.736Z,,,,,,,,,,,,,,,,,,,,,,,,,,,,,,,7992.606,,timeout,,,,,,,,,,,,,,,,,,,,,247414.80500000762,247414.089,239421.696,239435.18500000937,239438.17,247430.776,,,
Holding screen,html.Screen,2_3_1_0_0,2021-04-30T12:52:24.729Z,,,,,,,,,,,,,,,,,,,,,,,,,,,,,,,6993.6509999999835,,timeout,,,,,,,,,,,,,,,,,,,,,254408.1700000097,254407.551,247414.089,247414.96999998344,247430.776,254424.427,,,
screen,html.Screen,2_3_1_0_1_0,2021-04-30T12:52:25.493Z,,,,,,,,,,,,,,,,,48,,,,,,,,,,,,,,747.0029999875987,,response,,,,10,E,,,,,,Space,keypress(Space),,,,lyrical,,,,As -- --- ------ ------- --------- ----------- --------<br>--------- -------- --- ------- -- ------- ---- -- ------<br>-- --- -------- -------- ---------- ---- ---- ---- ------<br>-- --------- -- ---- -- --- -- --- ------- -- - -----<br>---------- -- -- -- ---- ----- -- ------ -- --- ------<br>-------,255172.1799999941,255171.4299999876,254407.551,254408.3400000236,254424.427,255173.472,,0,As
screen,html.Screen,2_3_1_0_1_1,2021-04-30T12:52:26.142Z,,,,,,,,,,,,,,,,,48,,,,,,,,,,,,,,646.3830000088201,,response,,,,10,E,,,,,,Space,keypress(Space),,,,lyrical,,,,-- in --- ------ ------- --------- ----------- --------<br>--------- -------- --- ------- -- ------- ---- -- ------<br>-- --- -------- -------- ---------- ---- ---- ---- ------<br>-- --------- -- ---- -- --- -- --- ------- -- - -----<br>---------- -- -- -- ---- ----- -- ------ -- --- ------<br>-------,255820.36000001244,255819.85500000883,255156.814,255172.29499999667,255173.472,255822.832,,1,in
screen,html.Screen,2_3_1_0_1_2,2021-04-30T12:52:26.789Z,,,,,,,,,,,,,,,,,48,,,,,,,,,,,,,,644.6779999876744,,response,,,,10,E,,,,,,Space,keypress(Space),,,,lyrical,,,,-- -- the ------ ------- --------- ----------- --------<br>--------- -------- --- ------- -- ------- ---- -- ------<br>-- --- -------- -------- ---------- ---- ---- ---- ------<br>-- --------- -- ---- -- --- -- --- ------- -- - -----<br>---------- -- -- -- ---- ----- -- ------ -- --- ------<br>-------,256468.02000002936,256467.50999998767,255806.305,255820.4450000194,255822.832,256472.261,,2,the
screen,html.Screen,2_3_1_0_1_3,2021-04-30T12:52:27.276Z,,,,,,,,,,,,,,,,,48,,,,,,,,,,,,,,481.76399998454144,,response,,,,10,E,,,,,,Space,keypress(Space),,,,lyrical,,,,-- -- --- United ------- --------- ----------- --------<br>--------- -------- --- ------- -- ------- ---- -- ------<br>-- --- -------- -------- ---------- ---- ---- ---- ------<br>-- --------- -- ---- -- --- -- --- ------- -- - -----<br>---------- -- -- -- ---- ----- -- ------ -- --- ------<br>-------,256954.5400000061,256954.02499998454,256455.878,256468.09999999823,256472.261,256987.098,,3,United
screen,html.Screen,2_3_1_0_1_4,2021-04-30T12:52:27.704Z,,,,,,,,,,,,,,,,,48,,,,,,,,,,,,,,395.5270000274759,,response,,,,10,E,,,,,,Space,keypress(Space),,,,lyrical,,,,"-- -- --- ------ States, --------- ----------- --------<br>--------- -------- --- ------- -- ------- ---- -- ------<br>-- --- -------- -------- ---------- ---- ---- ---- ------<br>-- --------- -- ---- -- --- -- --- ------- -- - -----<br>---------- -- -- -- ---- ----- -- ------ -- --- ------<br>-------",257383.15000000875,257382.62500002747,256938.688,256954.62000003317,256987.098,257388.339,,4,"States,"
screen,html.Screen,2_3_1_0_1_5,2021-04-30T12:52:28.436Z,,,,,,,,,,,,,,,,,48,,,,,,,,,,,,,,725.9710000335763,,response,,,,10,E,,,,,,Space,keypress(Space),,,,lyrical,,,,-- -- --- ------ ------- Colombian ----------- --------<br>--------- -------- --- ------- -- ------- ---- -- ------<br>-- --- -------- -------- ---------- ---- ---- ---- ------<br>-- --------- -- ---- -- --- -- --- ------- -- - -----<br>---------- -- -- -- ---- ----- -- ------ -- --- ------<br>-------,258114.7350000101,258114.31000003358,257371.488,257383.2350000157,257388.339,258120.873,,5,Colombian
screen,html.Screen,2_3_1_0_1_6,2021-04-30T12:52:29.125Z,,,,,,,,,,,,,,,,,48,,,,,,,,,,,,,,682.0220000298286,,response,,,,10,E,,,,,,Space,keypress(Space),,,,lyrical,,,,-- -- --- ------ ------- --------- legislation --------<br>--------- -------- --- ------- -- ------- ---- -- ------<br>-- --- -------- -------- ---------- ---- ---- ---- ------<br>-- --------- -- ---- -- --- -- --- ------- -- - -----<br>---------- -- -- -- ---- ----- -- ------ -- --- ------<br>-------,258803.4350000089,258802.89500002982,258104.31,258114.82499999693,258120.873,258820.596,,6,legislation
screen,html.Screen,2_3_1_0_1_7,2021-04-30T12:52:30.038Z,,,,,,,,,,,,,,,,,48,,,,,,,,,,,,,,895.7740000383055,,response,,,,10,E,,,,,,Space,keypress(Space),,,,lyrical,,,,-- -- --- ------ ------- --------- ----------- requires<br>--------- -------- --- ------- -- ------- ---- -- ------<br>-- --- -------- -------- ---------- ---- ---- ---- ------<br>-- --------- -- ---- -- --- -- --- ------- -- - -----<br>---------- -- -- -- ---- ----- -- ------ -- --- ------<br>-------,259716.94499999285,259716.3700000383,258787.259,258803.515000036,258820.596,259719.224,,7,requires
screen,html.Screen,2_3_1_0_1_8,2021-04-30T12:52:31.365Z,,,,,,,,,,,,,,,,,48,,,,,,,,,,,,,,1324.4210000270396,,response,,,,10,E,,,,,,Space,keypress(Space),,,,lyrical,,,,-- -- --- ------ ------- --------- ----------- --------<br>travelers -------- --- ------- -- ------- ---- -- ------<br>-- --- -------- -------- ---------- ---- ---- ---- ------<br>-- --------- -- ---- -- --- -- --- ------- -- - -----<br>---------- -- -- -- ---- ----- -- ------ -- --- ------<br>-------,261044.2350000376,261043.64500002703,259702.743,259717.03500003787,259719.224,261051.424,,8,travelers
screen,html.Screen,2_3_1_0_1_9,2021-04-30T12:52:31.849Z,,,,,,,,,,,,,,,,,48,,,,,,,,,,,,,,476.1460000347579,,response,,,,10,E,,,,,,Space,keypress(Space),,,,lyrical,,,,-- -- --- ------ ------- --------- ----------- --------<br>--------- entering --- ------- -- ------- ---- -- ------<br>-- --- -------- -------- ---------- ---- ---- ---- ------<br>-- --------- -- ---- -- --- -- --- ------- -- - -----<br>---------- -- -- -- ---- ----- -- ------ -- --- ------<br>-------,261528.12500001164,261527.57000003476,261034.903,261044.33499998413,261051.424,261534.503,,9,entering
screen,html.Screen,2_3_1_0_1_10,2021-04-30T12:52:32.410Z,,,,,,,,,,,,,,,,,48,,,,,,,,,,,,,,553.7920000232116,,response,,,,10,E,,,,,,Space,keypress(Space),,,,lyrical,,,,-- -- --- ------ ------- --------- ----------- --------<br>--------- -------- the ------- -- ------- ---- -- ------<br>-- --- -------- -------- ---------- ---- ---- ---- ------<br>-- --------- -- ---- -- --- -- --- ------- -- - -----<br>---------- -- -- -- ---- ----- -- ------ -- --- ------<br>-------,262088.77500001108,262088.2950000232,261517.584,261528.21499999845,261534.503,262100.489,,10,the
screen,html.Screen,2_3_1_0_1_11,2021-04-30T12:52:32.897Z,,,,,,,,,,,,,,,,,48,,,,,,,,,,,,,,474.62100003432715,,response,,,,10,E,,,,,,Space,keypress(Space),,,,lyrical,,,,-- -- --- ------ ------- --------- ----------- --------<br>--------- -------- --- country -- ------- ---- -- ------<br>-- --- -------- -------- ---------- ---- ---- ---- ------<br>-- --------- -- ---- -- --- -- --- ------- -- - -----<br>---------- -- -- -- ---- ----- -- ------ -- --- ------<br>-------,262575.64500003355,262575.1100000343,262083.976,262088.86000001803,262100.489,262583.483,,11,country
screen,html.Screen,2_3_1_0_1_12,2021-04-30T12:52:33.310Z,,,,,,,,,,,,,,,,,48,,,,,,,,,,,,,,404.85200000181794,,response,,,,10,E,,,,,,Space,keypress(Space),,,,lyrical,,,,-- -- --- ------ ------- --------- ----------- --------<br>--------- -------- --- ------- to ------- ---- -- ------<br>-- --- -------- -------- ---------- ---- ---- ---- ------<br>-- --------- -- ---- -- --- -- --- ------- -- - -----<br>---------- -- -- -- ---- ----- -- ------ -- --- ------<br>-------,262988.84000000544,262988.3350000018,262566.735,262575.8200000273,262583.483,262999.797,,12,to
screen,html.Screen,2_3_1_0_1_13,2021-04-30T12:52:33.747Z,,,,,,,,,,,,,,,,,48,,,,,,,,,,,,,,425.7780000010971,,response,,,,10,E,,,,,,Space,keypress(Space),,,,lyrical,,,,-- -- --- ------ ------- --------- ----------- --------<br>--------- -------- --- ------- -- declare ---- -- ------<br>-- --- -------- -------- ---------- ---- ---- ---- ------<br>-- --------- -- ---- -- --- -- --- ------- -- - -----<br>---------- -- -- -- ---- ----- -- ------ -- --- ------<br>-------,263426.0500000091,263425.5750000011,262983.141,262988.955000008,262999.797,263432.488,,13,declare
screen,html.Screen,2_3_1_0_1_14,2021-04-30T12:52:34.204Z,,,,,,,,,,,,,,,,,48,,,,,,,,,,,,,,449.6720000373898,,response,,,,10,E,,,,,,Space,keypress(Space),,,,lyrical,,,,-- -- --- ------ ------- --------- ----------- --------<br>--------- -------- --- ------- -- ------- cash -- ------<br>-- --- -------- -------- ---------- ---- ---- ---- ------<br>-- --------- -- ---- -- --- -- --- ------- -- - -----<br>---------- -- -- -- ---- ----- -- ------ -- --- ------<br>-------,263882.67500000075,263882.1600000374,263415.823,263426.1350000161,263432.488,263898.756,,14,cash
screen,html.Screen,2_3_1_0_1_15,2021-04-30T12:52:34.580Z,,,,,,,,,,,,,,,,,48,,,,,,,,,,,,,,359.9889999991865,,response,,,,10,E,,,,,,Space,keypress(Space),,,,lyrical,,,,-- -- --- ------ ------- --------- ----------- --------<br>--------- -------- --- ------- -- ------- ---- in ------<br>-- --- -------- -------- ---------- ---- ---- ---- ------<br>-- --------- -- ---- -- --- -- --- ------- -- - -----<br>---------- -- -- -- ---- ----- -- ------ -- --- ------<br>-------,264259.235000005,264258.7449999992,263882.3,263882.7600000077,263898.756,264264.994,,15,in
screen,html.Screen,2_3_1_0_1_16,2021-04-30T12:52:35.108Z,,,,,,,,,,,,,,,,,48,,,,,,,,,,,,,,521.795999983733,,response,,,,10,E,,,,,,Space,keypress(Space),,,,lyrical,,,,-- -- --- ------ ------- --------- ----------- --------<br>--------- -------- --- ------- -- ------- ---- -- excess<br>-- --- -------- -------- ---------- ---- ---- ---- ------<br>-- --------- -- ---- -- --- -- --- ------- -- - -----<br>---------- -- -- -- ---- ----- -- ------ -- --- ------<br>-------,264787.3000000254,264786.78999998374,264248.724,264259.3549999874,264264.994,264798.092,,16,excess
screen,html.Screen,2_3_1_0_1_17,2021-04-30T12:52:35.555Z,,,,,,,,,,,,,,,,,48,,,,,,,,,,,,,,434.93300002318574,,response,,,,10,E,,,,,,Space,keypress(Space),,,,lyrical,,,,-- -- --- ------ ------- --------- ----------- --------<br>--------- -------- --- ------- -- ------- ---- -- ------<br>of --- -------- -------- ---------- ---- ---- ---- ------<br>-- --------- -- ---- -- --- -- --- ------- -- - -----<br>---------- -- -- -- ---- ----- -- ------ -- --- ------<br>-------,265233.6099999957,265233.0250000232,264781.332,264787.3850000324,264798.092,265247.659,,17,of
screen,html.Screen,2_3_1_0_1_18,2021-04-30T12:52:35.942Z,,,,,,,,,,,,,,,,,48,,,,,,,,,,,,,,372.21600003307685,,response,,,,10,E,,,,,,Space,keypress(Space),,,,lyrical,,,,-- -- --- ------ ------- --------- ----------- --------<br>--------- -------- --- ------- -- ------- ---- -- ------<br>-- ten -------- -------- ---------- ---- ---- ---- ------<br>-- --------- -- ---- -- --- -- --- ------- -- - -----<br>---------- -- -- -- ---- ----- -- ------ -- --- ------<br>-------,265620.4349999898,265619.87500003306,265231.174,265233.7000000407,265247.659,265630.733,,18,ten
screen,html.Screen,2_3_1_0_1_19,2021-04-30T12:52:36.600Z,,,,,,,,,,,,,,,,,48,,,,,,,,,,,,,,647.7270000013523,,response,,,,10,E,,,,,,Space,keypress(Space),,,,lyrical,,,,-- -- --- ------ ------- --------- ----------- --------<br>--------- -------- --- ------- -- ------- ---- -- ------<br>-- --- thousand -------- ---------- ---- ---- ---- ------<br>-- --------- -- ---- -- --- -- --- ------- -- - -----<br>---------- -- -- -- ---- ----- -- ------ -- --- ------<br>-------,266279.04500003206,266278.46000000136,265614.014,265620.51999999676,265630.733,266308.348,,19,thousand
screen,html.Screen,2_3_1_0_1_20,2021-04-30T12:52:37.026Z,,,,,,,,,,,,,,,,,48,,,,,,,,,,,,,,396.23200001963414,,response,,,,10,E,,,,,,Space,keypress(Space),,,,lyrical,,,,-- -- --- ------ ------- --------- ----------- --------<br>--------- -------- --- ------- -- ------- ---- -- ------<br>-- --- -------- dollars. ---------- ---- ---- ---- ------<br>-- --------- -- ---- -- --- -- --- ------- -- - -----<br>---------- -- -- -- ---- ----- -- ------ -- --- ------<br>-------,266705.1250000368,266704.58000001963,266263.4,266279.130000039,266308.348,266712.741,,20,dollars.
screen,html.Screen,2_3_1_0_1_21,2021-04-30T12:52:37.858Z,,,,,,,,,,,,,,,,,48,,,,,,,,,,,,,,823.3839999841875,,response,,,,10,E,,,,,,Space,keypress(Space),,,,lyrical,,,,-- -- --- ------ ------- --------- ----------- --------<br>--------- -------- --- ------- -- ------- ---- -- ------<br>-- --- -------- -------- Concealing ---- ---- ---- ------<br>-- --------- -- ---- -- --- -- --- ------- -- - -----<br>---------- -- -- -- ---- ----- -- ------ -- --- ------<br>-------,267536.71000001486,267536.12499998417,266696.164,266705.20500000566,266712.741,267545.525,,21,Concealing
screen,html.Screen,2_3_1_0_1_22,2021-04-30T12:52:38.304Z,,,,,,,,,,,,,,,,,48,,,,,,,,,,,,,,436.9999999994179,,response,,,,10,E,,,,,,Space,keypress(Space),,,,lyrical,,,,-- -- --- ------ ------- --------- ----------- --------<br>--------- -------- --- ------- -- ------- ---- -- ------<br>-- --- -------- -------- ---------- more ---- ---- ------<br>-- --------- -- ---- -- --- -- --- ------- -- - -----<br>---------- -- -- -- ---- ----- -- ------ -- --- ------<br>-------,267983.11000003014,267982.52499999944,267528.918,267536.85000003316,267545.525,267994.861,,22,more
screen,html.Screen,2_3_1_0_1_23,2021-04-30T12:52:38.740Z,,,,,,,,,,,,,,,,,48,,,,,,,,,,,,,,423.7690000292496,,response,,,,10,E,,,,,,Space,keypress(Space),,,,lyrical,,,,-- -- --- ------ ------- --------- ----------- --------<br>--------- -------- --- ------- -- ------- ---- -- ------<br>-- --- -------- -------- ---------- ---- than ---- ------<br>-- --------- -- ---- -- --- -- --- ------- -- - -----<br>---------- -- -- -- ---- ----- -- ------ -- --- ------<br>-------,268419.1850000061,268418.6300000292,267978.449,267983.1950000371,267994.861,268427.813,,23,than
screen,html.Screen,2_3_1_0_1_24,2021-04-30T12:52:39.207Z,,,,,,,,,,,,,,,,,48,,,,,,,,,,,,,,457.1670000316226,,response,,,,10,E,,,,,,Space,keypress(Space),,,,lyrical,,,,-- -- --- ------ ------- --------- ----------- --------<br>--------- -------- --- ------- -- ------- ---- -- ------<br>-- --- -------- -------- ---------- ---- ---- that ------<br>-- --------- -- ---- -- --- -- --- ------- -- - -----<br>---------- -- -- -- ---- ----- -- ------ -- --- ------<br>-------,268885.53500000853,268884.98000003165,268411.362,268419.2749999929,268427.813,268894.011,,24,that
screen,html.Screen,2_3_1_0_1_25,2021-04-30T12:52:39.634Z,,,,,,,,,,,,,,,,,48,,,,,,,,,,,,,,418.6040000025532,,response,,,,10,E,,,,,,Space,keypress(Space),,,,lyrical,,,,-- -- --- ------ ------- --------- ----------- --------<br>--------- -------- --- ------- -- ------- ---- -- ------<br>-- --- -------- -------- ---------- ---- ---- ---- amount<br>-- --------- -- ---- -- --- -- --- ------- -- - -----<br>---------- -- -- -- ---- ----- -- ------ -- --- ------<br>-------,269313.13999998383,269312.61500000255,268877.873,268885.73000003817,268894.011,269327.184,,25,amount
screen,html.Screen,2_3_1_0_1_26,2021-04-30T12:52:40.040Z,,,,,,,,,,,,,,,,,48,,,,,,,,,,,,,,390.851000027149,,response,,,,10,E,,,,,,Space,keypress(Space),,,,lyrical,,,,-- -- --- ------ ------- --------- ----------- --------<br>--------- -------- --- ------- -- ------- ---- -- ------<br>-- --- -------- -------- ---------- ---- ---- ---- ------<br>to --------- -- ---- -- --- -- --- ------- -- - -----<br>---------- -- -- -- ---- ----- -- ------ -- --- ------<br>-------,269718.51000003517,269718.03500002716,269310.553,269313.2200000109,269327.184,269726.824,,26,to
screen,html.Screen,2_3_1_0_1_27,2021-04-30T12:52:40.404Z,,,,,,,,,,,,,,,,,48,,,,,,,,,,,,,,355.18600001279265,,response,,,,10,E,,,,,,Space,keypress(Space),,,,lyrical,,,,-- -- --- ------ ------- --------- ----------- --------<br>--------- -------- --- ------- -- ------- ---- -- ------<br>-- --- -------- -------- ---------- ---- ---- ---- ------<br>-- transport -- ---- -- --- -- --- ------- -- - -----<br>---------- -- -- -- ---- ----- -- ------ -- --- ------<br>-------,270082.4900000007,270082.0100000128,269710.241,269718.6550000333,269726.824,270092.976,,27,transport
screen,html.Screen,2_3_1_0_1_28,2021-04-30T12:52:40.791Z,,,,,,,,,,,,,,,,,48,,,,,,,,,,,,,,376.05400003655814,,response,,,,10,E,,,,,,Space,keypress(Space),,,,lyrical,,,,-- -- --- ------ ------- --------- ----------- --------<br>--------- -------- --- ------- -- ------- ---- -- ------<br>-- --- -------- -------- ---------- ---- ---- ---- ------<br>-- --------- it ---- -- --- -- --- ------- -- - -----<br>---------- -- -- -- ---- ----- -- ------ -- --- ------<br>-------,270469.57499999553,270469.0300000366,270076.693,270082.6000000234,270092.976,270475.978,,28,it
screen,html.Screen,2_3_1_0_1_29,2021-04-30T12:52:41.146Z,,,,,,,,,,,,,,,,,48,,,,,,,,,,,,,,348.20700003404636,,response,,,,10,E,,,,,,Space,keypress(Space),,,,lyrical,,,,-- -- --- ------ ------- --------- ----------- --------<br>--------- -------- --- ------- -- ------- ---- -- ------<br>-- --- -------- -------- ---------- ---- ---- ---- ------<br>-- --------- -- into -- --- -- --- ------- -- - -----<br>---------- -- -- -- ---- ----- -- ------ -- --- ------<br>-------,270824.7149999952,270824.18500003405,270459.483,270469.66500004055,270475.978,270856.133,,29,into
screen,html.Screen,2_3_1_0_1_30,2021-04-30T12:52:41.542Z,,,,,,,,,,,,,,,,,48,,,,,,,,,,,,,,364.5470000276691,,response,,,,10,E,,,,,,Space,keypress(Space),,,,lyrical,,,,-- -- --- ------ ------- --------- ----------- --------<br>--------- -------- --- ------- -- ------- ---- -- ------<br>-- --- -------- -------- ---------- ---- ---- ---- ------<br>-- --------- -- ---- or --- -- --- ------- -- - -----<br>---------- -- -- -- ---- ----- -- ------ -- --- ------<br>-------,271221.1750000133,271220.68000002764,270809.039,270824.820000038,270856.133,271225.26,,30,or
screen,html.Screen,2_3_1_0_1_31,2021-04-30T12:52:42.050Z,,,,,,,,,,,,,,,,,48,,,,,,,,,,,,,,503.26000000420026,,response,,,,10,E,,,,,,Space,keypress(Space),,,,lyrical,,,,-- -- --- ------ ------- --------- ----------- --------<br>--------- -------- --- ------- -- ------- ---- -- ------<br>-- --- -------- -------- ---------- ---- ---- ---- ------<br>-- --------- -- ---- -- out -- --- ------- -- - -----<br>---------- -- -- -- ---- ----- -- ------ -- --- ------<br>-------,271728.9800000144,271728.5200000042,271209.012,271221.2550000404,271225.26,271741.663,,31,out
screen,html.Screen,2_3_1_0_1_32,2021-04-30T12:52:42.478Z,,,,,,,,,,,,,,,,,48,,,,,,,,,,,,,,415.0170000146027,,response,,,,10,E,,,,,,Space,keypress(Space),,,,lyrical,,,,-- -- --- ------ ------- --------- ----------- --------<br>--------- -------- --- ------- -- ------- ---- -- ------<br>-- --- -------- -------- ---------- ---- ---- ---- ------<br>-- --------- -- ---- -- --- of --- ------- -- - -----<br>---------- -- -- -- ---- ----- -- ------ -- --- ------<br>-------,272157.2300000116,272156.6800000146,271724.793,271729.06500002136,271741.663,272174.35,,32,of
screen,html.Screen,2_3_1_0_1_33,2021-04-30T12:52:42.923Z,,,,,,,,,,,,,,,,,48,,,,,,,,,,,,,,426.59000003302936,,response,,,,10,E,,,,,,Space,keypress(Space),,,,lyrical,,,,-- -- --- ------ ------- --------- ----------- --------<br>--------- -------- --- ------- -- ------- ---- -- ------<br>-- --- -------- -------- ---------- ---- ---- ---- ------<br>-- --------- -- ---- -- --- -- the ------- -- - -----<br>---------- -- -- -- ---- ----- -- ------ -- --- ------<br>-------,272601.5100000077,272600.940000033,272141.388,272157.31999999844,272174.35,272607.404,,33,the
screen,html.Screen,2_3_1_0_1_34,2021-04-30T12:52:43.565Z,,,,,,,,,,,,,,,,,48,,,,,,,,,,,,,,635.681000023731,,response,,,,10,E,,,,,,Space,keypress(Space),,,,lyrical,,,,-- -- --- ------ ------- --------- ----------- --------<br>--------- -------- --- ------- -- ------- ---- -- ------<br>-- --- -------- -------- ---------- ---- ---- ---- ------<br>-- --------- -- ---- -- --- -- --- country -- - -----<br>---------- -- -- -- ---- ----- -- ------ -- --- ------<br>-------,273243.63000004087,273243.0850000237,272590.934,272601.5900000348,272607.404,273256.895,,34,country
screen,html.Screen,2_3_1_0_1_35,2021-04-30T12:52:44.570Z,,,,,,,,,,,,,,,,,48,,,,,,,,,,,,,,991.3400000063702,,response,,,,10,E,,,,,,Space,keypress(Space),,,,lyrical,,,,-- -- --- ------ ------- --------- ----------- --------<br>--------- -------- --- ------- -- ------- ---- -- ------<br>-- --- -------- -------- ---------- ---- ---- ---- ------<br>-- --------- -- ---- -- --- -- --- ------- is - -----<br>---------- -- -- -- ---- ----- -- ------ -- --- ------<br>-------,274248.72000003234,274248.2350000064,273240.487,273243.7149999896,273256.895,274255.671,,35,is
screen,html.Screen,2_3_1_0_1_36,2021-04-30T12:52:44.904Z,,,,,,,,,,,,,,,,,48,,,,,,,,,,,,,,326.4739999930607,,response,,,,10,E,,,,,,Space,keypress(Space),,,,lyrical,,,,-- -- --- ------ ------- --------- ----------- --------<br>--------- -------- --- ------- -- ------- ---- -- ------<br>-- --- -------- -------- ---------- ---- ---- ---- ------<br>-- --------- -- ---- -- --- -- --- ------- -- a -----<br>---------- -- -- -- ---- ----- -- ------ -- --- ------<br>-------,274582.6600000146,274582.14499999303,274239.289,274248.8000000012,274255.671,274589.111,,36,a
screen,html.Screen,2_3_1_0_1_37,2021-04-30T12:52:45.615Z,,,,,,,,,,,,,,,,,48,,,,,,,,,,,,,,704.1790000014589,,response,,,,10,E,,,,,,Space,keypress(Space),,,,lyrical,,,,-- -- --- ------ ------- --------- ----------- --------<br>--------- -------- --- ------- -- ------- ---- -- ------<br>-- --- -------- -------- ---------- ---- ---- ---- ------<br>-- --------- -- ---- -- --- -- --- ------- -- - crime<br>---------- -- -- -- ---- ----- -- ------ -- --- ------<br>-------,275293.7600000296,275293.29000000143,274572.093,274582.7700000373,274589.111,275304.697,,37,crime
screen,html.Screen,2_3_1_0_1_38,2021-04-30T12:52:46.244Z,,,,,,,,,,,,,,,,,48,,,,,,,,,,,,,,617.4430000387947,,response,,,,10,E,,,,,,Space,keypress(Space),,,,lyrical,,,,-- -- --- ------ ------- --------- ----------- --------<br>--------- -------- --- ------- -- ------- ---- -- ------<br>-- --- -------- -------- ---------- ---- ---- ---- ------<br>-- --------- -- ---- -- --- -- --- ------- -- - -----<br>punishable -- -- -- ---- ----- -- ------ -- --- ------<br>-------,275922.675000038,275922.1400000388,275288.419,275293.8500000164,275304.697,275937.585,,38,punishable
screen,html.Screen,2_3_1_0_1_39,2021-04-30T12:52:46.731Z,,,,,,,,,,,,,,,,,48,,,,,,,,,,,,,,471.9100000289618,,response,,,,10,E,,,,,,Space,keypress(Space),,,,lyrical,,,,-- -- --- ------ ------- --------- ----------- --------<br>--------- -------- --- ------- -- ------- ---- -- ------<br>-- --- -------- -------- ---------- ---- ---- ---- ------<br>-- --------- -- ---- -- --- -- --- ------- -- - -----<br>---------- by -- -- ---- ----- -- ------ -- --- ------<br>-------,276410.03999998793,276409.495000029,275920.899,275922.75999998674,275937.585,276420.874,,39,by
screen,html.Screen,2_3_1_0_1_40,2021-04-30T12:52:47.057Z,,,,,,,,,,,,,,,,,48,,,,,,,,,,,,,,314.1310000240919,,response,,,,10,E,,,,,,Space,keypress(Space),,,,lyrical,,,,-- -- --- ------ ------- --------- ----------- --------<br>--------- -------- --- ------- -- ------- ---- -- ------<br>-- --- -------- -------- ---------- ---- ---- ---- ------<br>-- --------- -- ---- -- --- -- --- ------- -- - -----<br>---------- -- up -- ---- ----- -- ------ -- --- ------<br>-------,276735.5000000098,276735.0050000241,276404.311,276410.1249999949,276420.874,276754.454,,40,up
screen,html.Screen,2_3_1_0_1_41,2021-04-30T12:52:47.409Z,,,,,,,,,,,,,,,,,48,,,,,,,,,,,,,,333.1559999877354,,response,,,,10,E,,,,,,Space,keypress(Space),,,,lyrical,,,,-- -- --- ------ ------- --------- ----------- --------<br>--------- -------- --- ------- -- ------- ---- -- ------<br>-- --- -------- -------- ---------- ---- ---- ---- ------<br>-- --------- -- ---- -- --- -- --- ------- -- - -----<br>---------- -- -- to ---- ----- -- ------ -- --- ------<br>-------,277088.19500001846,277087.60999998776,276720.276,276735.5850000167,276754.454,277102.998,,41,to
