sender,sender_type,sender_id,timestamp,meta,,Blues,Classical,Country,Dance,Electronic,Folk,Gospel,Hip-Hop,Jazz,Latin,Musical/Film,New-age,Pop,Prolific_id,Provo_ID,R&B,Rap,Reggae,Religious,Rock,Soul,Swing,Traditional,age,artist_name,correct,correctResponse,distraction,duration,education,ended_on,familiarity,gender,headphone_check_performance,item,list,music_frequency,offensiveness,pleasantness,position_correct,preference,response,response_action,snippet_file,song_name,song_rating,sound,stimulus_1,stimulus_2,stimulus_3,text,time_commit,time_end,time_render,time_run,time_show,time_switch,url,word,word_ID
Prolific ID,html.Form,0,2021-04-26T09:30:35.914Z,"{""labjs_version"":""20.2.2"",""labjs_build"":{""flavor"":""production"",""commit"":""a25486e0c714a0ae2ce03ff94b7bb6896854dcfa""},""location"":""https://run.pavlovia.org/mvasilev/prolific_music_a/"",""userAgent"":""Mozilla/5.0 (Windows NT 10.0; Win64; x64) AppleWebKit/537.36 (KHTML, like Gecko) Chrome/90.0.4430.85 Safari/537.36"",""platform"":""Win32"",""language"":""en-GB"",""locale"":""en-GB"",""timeZone"":""Europe/London"",""timezoneOffset"":-60,""screen_width"":1536,""screen_height"":864,""scroll_width"":1536,""scroll_height"":674,""window_innerWidth"":1536,""window_innerHeight"":722,""devicePixelRatio"":1.25}",,,,,,,,,,,,,,,5fbfffc4e214a60ab1b745fd,,,,,,,,,,,,,,,6630.46899997545,,form submission,,,,,,,,,,,,,,,,,,,,,20787.475000019185,20785.38999997545,14088.95,14100.909999920987,14154.921,20802.806,{},,
Introduction,html.Screen,1_0,2021-04-26T09:30:40.370Z,,,,,,,,,,,,,,,,,,,,,,,,,,,,,,,4436.5339999709795,,response,,,,,,,,,,,continue,click button,,,,,,,,,25243.73500002548,25239.33999997098,20769.364,20788.06499997154,20802.806,25251.015,,,
Volume calibration,html.Screen,1_1,2021-04-26T09:30:55.420Z,,,,,,,,,,,,,,,,,,,,,,,,,,,,,,,15038.319999979474,,response,,,,,,,,,,,continue,click button,,,,,,,,,40294.089999981225,40289.334999979474,25234.511,25243.974999990314,25251.015,40295.796,,,
Task instructions,html.Screen,1_2,2021-04-26T09:31:02.905Z,,,,,,,,,,,,,,,,,,,,,,,,,,,,,,,7481.7589999205375,,response,,,,,,,,,,,continue,click button,,,,,,,,,47778.78499997314,47777.55499992054,40279.156,40294.28499995265,40295.796,47793.095,,,
Sounds,html.Screen,1_3_0_0,2021-04-26T09:31:07.155Z,,,,,,,,,,,,,,,,,,,,,,,,,,,,,,,4248.551999999996,,timeout,,,,,,,,,3,,,,,,,,O,I,S,,52028.41999998782,52025.056,47776.611,47779.154999996535,47793.095,52041.647,,,
Judgement,html.Screen,1_3_0_1,2021-04-26T09:31:08.698Z,,,,,,,,,,,,,,,,,,,,,,,,,,,,false,3,,1527.7180000030203,,response,,,,,,,,,3,,1,click #choice-1,,,,,O,I,S,,53571.64999993984,53569.36500000302,52025.056,52028.65499991458,52041.647,53574.44,,,
Trial,flow.Sequence,1_3_0,2021-04-26T09:31:08.699Z,,,,,,,,,,,,,,,,,,,,,,,,,,,,,,,5776.270000003016,,completion,,,,,,,,,3,,,,,,,,O,I,S,,53572.124999947846,53569.36500000302,47776.611,47779.07499996945,47793.095,53574.44,,,
Sounds,html.Screen,1_3_1_0,2021-04-26T09:31:12.934Z,,,,,,,,,,,,,,,,,,,,,,,,,,,,,,,4248.514999999999,,timeout,,,,,,,,,1,,,,,,,,S,O,I,,57807.35000001732,57806.488,53557.936,53572.35499995295,53574.44,57822.955,,,
Judgement,html.Screen,1_3_1_1,2021-04-26T09:31:13.697Z,,,,,,,,,,,,,,,,,,,,,,,,,,,,true,1,,746.3999999268708,,response,,,,,,,,,1,,1,click #choice-1,,,,,S,O,I,,58571.074999985285,58569.35499992687,57806.488,57807.53999995068,57822.955,58572.703,,,
Trial,flow.Sequence,1_3_1,2021-04-26T09:31:13.698Z,,,,,,,,,,,,,,,,,,,,,,,,,,,,,,,4994.91499992687,,completion,,,,,,,,,1,,,,,,,,S,O,I,,58571.37000001967,58569.35499992687,53557.936,53572.27999996394,53574.44,58572.703,,,
Sounds,html.Screen,1_3_2_0,2021-04-26T09:31:17.936Z,,,,,,,,,,,,,,,,,,,,,,,,,,,,,,,4248.544000000002,,timeout,,,,,,,,,2,,,,,,,,I,S,O,,62806.61999993026,62804.55,58556.325,58571.574999950826,58572.703,62821.247,,,
Judgement,html.Screen,1_3_2_1,2021-04-26T09:31:18.735Z,,,,,,,,,,,,,,,,,,,,,,,,,,,,true,2,,782.2929999236658,,response,,,,,,,,,2,,2,click #choice-2,,,,,I,S,O,,63606.1950000003,63603.53999992367,62804.55,62806.849999935366,62821.247,63621.01,,,
Trial,flow.Sequence,1_3_2,2021-04-26T09:31:18.736Z,,,,,,,,,,,,,,,,,,,,,,,,,,,,,,,5030.8369999236675,,completion,,,,,,,,,2,,,,,,,,I,S,O,,63606.50999995414,63603.53999992367,58556.325,58571.50499999989,58572.703,63621.01,,,
Sounds,html.Screen,1_3_3_0,2021-04-26T09:31:22.983Z,,,,,,,,,,,,,,,,,,,,,,,,,,,,,,,4248.7720000000045,,timeout,,,,,,,,,2,,,,,,,,O,S,I,,67853.83999999613,67852.838,63604.359,63606.71500000171,63621.01,67869.782,,,
Judgement,html.Screen,1_3_3_1,2021-04-26T09:31:24.090Z,,,,,,,,,,,,,,,,,,,,,,,,,,,,true,2,,1089.5429999452317,,response,,,,,,,,,2,,2,click #choice-2,,,,,O,S,I,,68960.55499999784,68959.32499994524,67852.838,67854.01000001002,67869.782,68969.139,,,
Trial,flow.Sequence,1_3_3,2021-04-26T09:31:24.090Z,,,,,,,,,,,,,,,,,,,,,,,,,,,,,,,5338.314999945236,,completion,,,,,,,,,2,,,,,,,,O,S,I,,68960.83999995608,68959.32499994524,63604.359,63606.64499993436,63621.01,68969.139,,,
Sounds,html.Screen,1_3_4_0,2021-04-26T09:31:28.331Z,,,,,,,,,,,,,,,,,,,,,,,,,,,,,,,4248.463000000003,,timeout,,,,,,,,,3,,,,,,,,I,O,S,,73202.15999998618,73200.895,68952.521,68961.02499996778,68969.139,73217.602,,,
Judgement,html.Screen,1_3_4_1,2021-04-26T09:31:29.028Z,,,,,,,,,,,,,,,,,,,,,,,,,,,,true,3,,680.3630000110279,,response,,,,,,,,,3,,3,click #choice-3,,,,,I,O,S,,73899.16499995161,73897.96500001103,73200.895,73202.33499992173,73217.602,73900.934,,,
Trial,flow.Sequence,1_3_4,2021-04-26T09:31:29.029Z,,,,,,,,,,,,,,,,,,,,,,,,,,,,,,,4928.826000011031,,completion,,,,,,,,,3,,,,,,,,I,O,S,,73899.43499991205,73897.96500001103,68952.521,68960.97000001464,68969.139,73900.934,,,
Sounds,html.Screen,1_3_5_0,2021-04-26T09:31:33.263Z,,,,,,,,,,,,,,,,,,,,,,,,,,,,,,,4248.238000000012,,timeout,,,,,,,,,1,,,,,,,,S,I,O,,78133.42500000726,78132.595,73884.167,73899.61500000209,73900.934,78149.172,,,
Judgement,html.Screen,1_3_5_1,2021-04-26T09:31:34.024Z,,,,,,,,,,,,,,,,,,,,,,,,,,,,true,1,,744.2629999763012,,response,,,,,,,,,1,,1,click #choice-1,,,,,S,I,O,,78894.91499995347,78893.4349999763,78132.595,78133.59999994282,78149.172,78898.976,,,
Trial,flow.Sequence,1_3_5,2021-04-26T09:31:34.024Z,,,,,,,,,,,,,,,,,,,,,,,,,,,,,,,4992.500999976313,,completion,,,,,,,,,1,,,,,,,,S,I,O,,78895.17999999225,78893.4349999763,73884.167,73899.56499997061,73900.934,78898.976,,,
Task,flow.Loop,1_3,2021-04-26T09:31:34.033Z,,,,,,,,,,,,,,,,,,,,,,,,,,,,,,,31100.339999976306,,completion,,,0.8333333333333334,,,,,,,,,,,,,,,,,,78903.3150000032,78893.4349999763,47776.611,47778.98499998264,47793.095,78898.976,,,
Trap,html.Screen,1_4,2021-04-26T09:31:34.035Z,,,,,,,,,,,,,,,,,,,,,,,,,,,,,,,NaN,,skipped,,,,,,,,,,,,,,,,,,,,,78905.32499994151,78893.4349999763,,78904.9899999518,,78898.976,,,
Thanks,html.Screen,1_5,2021-04-26T09:31:36.905Z,,,,,,,,,,,,,,,,,,,,,,,,,,,,,,,2874.9690000226547,,response,,,,,,,,,,,continue,click button,,,,,,,,,81775.40499996394,81773.94500002265,78882.395,78905.48999991734,78898.976,84846.914,,,
Headphone screening,flow.Sequence,1,2021-04-26T09:31:36.905Z,,,,,,,,,,,,,,,,,,,,,,,,,,,,,,,60971.13900002265,,completion,,,,,,,,,,,,,,,,,,,,,81775.65500000492,81773.94500002265,20769.364,20787.9800000228,20802.806,84846.914,,,
Instructions,html.Page,2_0,2021-04-26T09:31:52.385Z,,,,,,,,,,,,,,,,,,,,,,,,,,,,,,,12408.6309999636,,form submission,,,,,,,,,,,,,,,,,,,,,97256.04499992914,97255.5449999636,84830.248,84844.25999992527,84846.914,97259.411,,,
Holding screen,html.Screen,2_1_0_0,2021-04-26T09:32:02.369Z,,,,,,,,,,,,,,,,,,,,,,,,,,,,,,,10012.968000000008,,timeout,,,,,,,,,,,,,,,,,,,,,107239.99499995261,107239.102,97242.752,97256.33999996353,97259.411,107272.379,,,
screen,html.Screen,2_1_0_1_0,2021-04-26T09:32:03.071Z,,,,,,,,,,,,,,,,,53,,,,,,,,,,,,,,665.7859999413631,,response,,,,99,,,,,,,Space,keypress(Space),,,,,,,,When -- ----- -- ------ - ------- --- ----------<br>------------- ------ ------ ---- ---- ------- ----- -- ----<br>-------- ------- -- ---------- --- - --- ----- ----- ----<br>---- --- --- ----- --- ---- ---- ------- ----- ---- -------<br>--- --- -- ----- -- --- ---- -- --- ---- -- ------ ------<br>--- ----- -- ----,107942.19500001054,107938.16499994136,107239.102,107240.40000000969,107272.379,107955.459,,0,When
screen,html.Screen,2_1_0_1_1,2021-04-26T09:32:03.477Z,,,,,,,,,,,,,,,,,53,,,,,,,,,,,,,,390.8409999755968,,response,,,,99,,,,,,,Space,keypress(Space),,,,,,,,---- it ----- -- ------ - ------- --- ----------<br>------------- ------ ------ ---- ---- ------- ----- -- ----<br>-------- ------- -- ---------- --- - --- ----- ----- ----<br>---- --- --- ----- --- ---- ---- ------- ----- ---- -------<br>--- --- -- ----- -- --- ---- -- --- ---- -- ------ ------<br>--- ----- -- ----,108347.42499992717,108346.2999999756,107939.073,107942.41000001784,107955.459,108355.318,,1,it
screen,html.Screen,2_1_0_1_2,2021-04-26T09:32:03.997Z,,,,,,,,,,,,,,,,,53,,,,,,,,,,,,,,511.8019999516837,,response,,,,99,,,,,,,Space,keypress(Space),,,,,,,,---- -- comes -- ------ - ------- --- ----------<br>------------- ------ ------ ---- ---- ------- ----- -- ----<br>-------- ------- -- ---------- --- - --- ----- ----- ----<br>---- --- --- ----- --- ---- ---- ------- ----- ---- -------<br>--- --- -- ----- -- --- ---- -- --- ---- -- ------ ------<br>--- ----- -- ----,108868.17999999039,108867.11999995168,108338.802,108347.71000000183,108355.318,108871.82,,2,comes
screen,html.Screen,2_1_0_1_3,2021-04-26T09:32:04.549Z,,,,,,,,,,,,,,,,,53,,,,,,,,,,,,,,546.985000022978,,response,,,,99,,,,,,,Space,keypress(Space),,,,,,,,---- -- ----- to ------ - ------- --- ----------<br>------------- ------ ------ ---- ---- ------- ----- -- ----<br>-------- ------- -- ---------- --- - --- ----- ----- ----<br>---- --- --- ----- --- ---- ---- ------- ----- ---- -------<br>--- --- -- ----- -- --- ---- -- --- ---- -- ------ ------<br>--- ----- -- ----,109419.58999994677,109418.80500002299,108855.359,108868.35999996401,108871.82,109421.626,,3,to
screen,html.Screen,2_1_0_1_4,2021-04-26T09:32:04.939Z,,,,,,,,,,,,,,,,,53,,,,,,,,,,,,,,387.39899996590975,,response,,,,99,,,,,,,Space,keypress(Space),,,,,,,,---- -- ----- -- having - ------- --- ----------<br>------------- ------ ------ ---- ---- ------- ----- -- ----<br>-------- ------- -- ---------- --- - --- ----- ----- ----<br>---- --- --- ----- --- ---- ---- ------- ----- ---- -------<br>--- --- -- ----- -- --- ---- -- --- ---- -- ------ ------<br>--- ----- -- ----,109810.06499996874,109809.02499996591,109405.421,109419.77499995846,109421.626,109821.926,,4,having
screen,html.Screen,2_1_0_1_5,2021-04-26T09:32:05.342Z,,,,,,,,,,,,,,,,,53,,,,,,,,,,,,,,389.7189999157272,,response,,,,99,,,,,,,Space,keypress(Space),,,,,,,,---- -- ----- -- ------ a ------- --- ----------<br>------------- ------ ------ ---- ---- ------- ----- -- ----<br>-------- ------- -- ---------- --- - --- ----- ----- ----<br>---- --- --- ----- --- ---- ---- ------- ----- ---- -------<br>--- --- -- ----- -- --- ---- -- --- ---- -- ------ ------<br>--- ----- -- ----,110212.59999996983,110211.64499991573,109805.17,109810.24499994237,109821.926,110221.353,,5,a
screen,html.Screen,2_1_0_1_6,2021-04-26T09:32:05.756Z,,,,,,,,,,,,,,,,,53,,,,,,,,,,,,,,404.0719999765279,,response,,,,99,,,,,,,Space,keypress(Space),,,,,,,,---- -- ----- -- ------ - lasting --- ----------<br>------------- ------ ------ ---- ---- ------- ----- -- ----<br>-------- ------- -- ---------- --- - --- ----- ----- ----<br>---- --- --- ----- --- ---- ---- ------- ----- ---- -------<br>--- --- -- ----- -- --- ---- -- --- ---- -- ------ ------<br>--- ----- -- ----,110626.50999997277,110625.42499997653,110204.864,110212.78499998152,110221.353,110637.858,,6,lasting
screen,html.Screen,2_1_0_1_7,2021-04-26T09:32:06.282Z,,,,,,,,,,,,,,,,,53,,,,,,,,,,,,,,514.1420000018697,,response,,,,99,,,,,,,Space,keypress(Space),,,,,,,,---- -- ----- -- ------ - ------- and ----------<br>------------- ------ ------ ---- ---- ------- ----- -- ----<br>-------- ------- -- ---------- --- - --- ----- ----- ----<br>---- --- --- ----- --- ---- ---- ------- ----- ---- -------<br>--- --- -- ----- -- --- ---- -- --- ---- -- ------ ------<br>--- ----- -- ----,111153.04499992635,111152.00000000186,110621.384,110626.68500002474,110637.858,111180.951,,7,and
screen,html.Screen,2_1_0_1_8,2021-04-26T09:32:06.772Z,,,,,,,,,,,,,,,,,53,,,,,,,,,,,,,,461.20400000864174,,response,,,,99,,,,,,,Space,keypress(Space),,,,,,,,---- -- ----- -- ------ - ------- --- fulfilling<br>------------- ------ ------ ---- ---- ------- ----- -- ----<br>-------- ------- -- ---------- --- - --- ----- ----- ----<br>---- --- --- ----- --- ---- ---- ------- ----- ---- -------<br>--- --- -- ----- -- --- ---- -- --- ---- -- ------ ------<br>--- ----- -- ----,111642.87500001956,111642.15500000864,111137.889,111153.22500001639,111180.951,111654.382,,8,fulfilling
screen,html.Screen,2_1_0_1_9,2021-04-26T09:32:07.256Z,,,,,,,,,,,,,,,,,53,,,,,,,,,,,,,,470.89799992016924,,response,,,,99,,,,,,,Space,keypress(Space),,,,,,,,"---- -- ----- -- ------ - ------- --- ----------<br>relationship, ------ ------ ---- ---- ------- ----- -- ----<br>-------- ------- -- ---------- --- - --- ----- ----- ----<br>---- --- --- ----- --- ---- ---- ------- ----- ---- -------<br>--- --- -- ----- -- --- ---- -- --- ---- -- ------ ------<br>--- ----- -- ----",112126.33999995887,112125.27999992017,111637.703,111643.05999991484,111654.382,112137.318,,9,"relationship,"
screen,html.Screen,2_1_0_1_10,2021-04-26T09:32:07.674Z,,,,,,,,,,,,,,,,,53,,,,,,,,,,,,,,406.8520000083081,,response,,,,99,,,,,,,Space,keypress(Space),,,,,,,,---- -- ----- -- ------ - ------- --- ----------<br>------------- common ------ ---- ---- ------- ----- -- ----<br>-------- ------- -- ---------- --- - --- ----- ----- ----<br>---- --- --- ----- --- ---- ---- ------- ----- ---- -------<br>--- --- -- ----- -- --- ---- -- --- ---- -- ------ ------<br>--- ----- -- ----,112544.90999993868,112544.17000000831,112120.856,112126.5199999325,112137.318,112553.855,,10,common
screen,html.Screen,2_1_0_1_11,2021-04-26T09:32:08.095Z,,,,,,,,,,,,,,,,,53,,,,,,,,,,,,,,410.6349999257218,,response,,,,99,,,,,,,Space,keypress(Space),,,,,,,,---- -- ----- -- ------ - ------- --- ----------<br>------------- ------ wisdom ---- ---- ------- ----- -- ----<br>-------- ------- -- ---------- --- - --- ----- ----- ----<br>---- --- --- ----- --- ---- ---- ------- ----- ---- -------<br>--- --- -- ----- -- --- ---- -- --- ---- -- ------ ------<br>--- ----- -- ----,112965.45499993954,112964.48999992572,112537.363,112545.09499995038,112553.855,112970.442,,11,wisdom
screen,html.Screen,2_1_0_1_12,2021-04-26T09:32:08.602Z,,,,,,,,,,,,,,,,,53,,,,,,,,,,,,,,501.39800001289404,,response,,,,99,,,,,,,Space,keypress(Space),,,,,,,,---- -- ----- -- ------ - ------- --- ----------<br>------------- ------ ------ says ---- ------- ----- -- ----<br>-------- ------- -- ---------- --- - --- ----- ----- ----<br>---- --- --- ----- --- ---- ---- ------- ----- ---- -------<br>--- --- -- ----- -- --- ---- -- --- ---- -- ------ ------<br>--- ----- -- ----,113472.88000001572,113471.84000001289,112953.896,112965.69999994244,112970.442,113486.87,,12,says
screen,html.Screen,2_1_0_1_13,2021-04-26T09:32:09.012Z,,,,,,,,,,,,,,,,,53,,,,,,,,,,,,,,395.10500002570916,,response,,,,99,,,,,,,Space,keypress(Space),,,,,,,,---- -- ----- -- ------ - ------- --- ----------<br>------------- ------ ------ ---- that ------- ----- -- ----<br>-------- ------- -- ---------- --- - --- ----- ----- ----<br>---- --- --- ----- --- ---- ---- ------- ----- ---- -------<br>--- --- -- ----- -- --- ---- -- --- ---- -- ------ ------<br>--- ----- -- ----,113882.99999991432,113881.9750000257,113470.429,113473.05999998935,113486.87,113887.026,,13,that
screen,html.Screen,2_1_0_1_14,2021-04-26T09:32:09.413Z,,,,,,,,,,,,,,,,,53,,,,,,,,,,,,,,395.46899993398983,,response,,,,99,,,,,,,Space,keypress(Space),,,,,,,,---- -- ----- -- ------ - ------- --- ----------<br>------------- ------ ------ ---- ---- feeling ----- -- ----<br>-------- ------- -- ---------- --- - --- ----- ----- ----<br>---- --- --- ----- --- ---- ---- ------- ----- ---- -------<br>--- --- -- ----- -- --- ---- -- --- ---- -- ------ ------<br>--- ----- -- ----,114283.53499993682,114282.49499993399,113870.253,113883.18499992602,113887.026,114286.562,,14,feeling
screen,html.Screen,2_1_0_1_15,2021-04-26T09:32:09.797Z,,,,,,,,,,,,,,,,,53,,,,,,,,,,,,,,380.45799993528635,,response,,,,99,,,,,,,Space,keypress(Space),,,,,,,,---- -- ----- -- ------ - ------- --- ----------<br>------------- ------ ------ ---- ---- ------- close -- ----<br>-------- ------- -- ---------- --- - --- ----- ----- ----<br>---- --- --- ----- --- ---- ---- ------- ----- ---- -------<br>--- --- -- ----- -- --- ---- -- --- ---- -- ------ ------<br>--- ----- -- ----,114667.81499993522,114667.01999993529,114270.435,114283.71500002686,114286.562,114669.787,,15,close
screen,html.Screen,2_1_0_1_16,2021-04-26T09:32:10.153Z,,,,,,,,,,,,,,,,,53,,,,,,,,,,,,,,352.9480000059266,,response,,,,99,,,,,,,Space,keypress(Space),,,,,,,,---- -- ----- -- ------ - ------- --- ----------<br>------------- ------ ------ ---- ---- ------- ----- to ----<br>-------- ------- -- ---------- --- - --- ----- ----- ----<br>---- --- --- ----- --- ---- ---- ------- ----- ---- -------<br>--- --- -- ----- -- --- ---- -- --- ---- -- ------ ------<br>--- ----- -- ----,115023.41499994509,115022.73500000592,114653.312,114667.99500002526,114669.787,115036.762,,16,to
screen,html.Screen,2_1_0_1_17,2021-04-26T09:32:10.492Z,,,,,,,,,,,,,,,,,53,,,,,,,,,,,,,,324.8330000239512,,response,,,,99,,,,,,,Space,keypress(Space),,,,,,,,---- -- ----- -- ------ - ------- --- ----------<br>------------- ------ ------ ---- ---- ------- ----- -- your<br>-------- ------- -- ---------- --- - --- ----- ----- ----<br>---- --- --- ----- --- ---- ---- ------- ----- ---- -------<br>--- --- -- ----- -- --- ---- -- --- ---- -- ------ ------<br>--- ----- -- ----,115362.62999998871,115361.59500002395,115019.84,115023.59499991871,115036.762,115369.567,,17,your
screen,html.Screen,2_1_0_1_18,2021-04-26T09:32:10.851Z,,,,,,,,,,,,,,,,,53,,,,,,,,,,,,,,350.65799993909604,,response,,,,99,,,,,,,Space,keypress(Space),,,,,,,,---- -- ----- -- ------ - ------- --- ----------<br>------------- ------ ------ ---- ---- ------- ----- -- ----<br>romantic ------- -- ---------- --- - --- ----- ----- ----<br>---- --- --- ----- --- ---- ---- ------- ----- ---- -------<br>--- --- -- ----- -- --- ---- -- --- ---- -- ------ ------<br>--- ----- -- ----,115721.3299999712,115720.22499993909,115353.028,115362.81500000041,115369.567,115736.156,,18,romantic
screen,html.Screen,2_1_0_1_19,2021-04-26T09:32:11.183Z,,,,,,,,,,,,,,,,,53,,,,,,,,,,,,,,315.9340000119555,,response,,,,99,,,,,,,Space,keypress(Space),,,,,,,,---- -- ----- -- ------ - ------- --- ----------<br>------------- ------ ------ ---- ---- ------- ----- -- ----<br>-------- partner -- ---------- --- - --- ----- ----- ----<br>---- --- --- ----- --- ---- ---- ------- ----- ---- -------<br>--- --- -- ----- -- --- ---- -- --- ---- -- ------ ------<br>--- ----- -- ----,116053.74999996275,116052.09000001196,115719.585,115721.50999994483,115736.156,116069.627,,19,partner
screen,html.Screen,2_1_0_1_20,2021-04-26T09:32:11.525Z,,,,,,,,,,,,,,,,,53,,,,,,,,,,,,,,323.7879999404395,,response,,,,99,,,,,,,Space,keypress(Space),,,,,,,,---- -- ----- -- ------ - ------- --- ----------<br>------------- ------ ------ ---- ---- ------- ----- -- ----<br>-------- ------- is ---------- --- - --- ----- ----- ----<br>---- --- --- ----- --- ---- ---- ------- ----- ---- -------<br>--- --- -- ----- -- --- ---- -- --- ---- -- ------ ------<br>--- ----- -- ----,116395.94999991823,116393.41499994043,116052.783,116053.92500001471,116069.627,116402.51,,20,is
screen,html.Screen,2_1_0_1_21,2021-04-26T09:32:11.812Z,,,,,,,,,,,,,,,,,53,,,,,,,,,,,,,,279.40499996465223,,response,,,,99,,,,,,,Space,keypress(Space),,,,,,,,---- -- ----- -- ------ - ------- --- ----------<br>------------- ------ ------ ---- ---- ------- ----- -- ----<br>-------- ------- -- paramount. --- - --- ----- ----- ----<br>---- --- --- ----- --- ---- ---- ------- ----- ---- -------<br>--- --- -- ----- -- --- ---- -- --- ---- -- ------ ------<br>--- ----- -- ----,116682.97500000335,116681.91499996465,116385.986,116396.13000000827,116402.51,116685.787,,21,paramount.
screen,html.Screen,2_1_0_1_22,2021-04-26T09:32:12.272Z,,,,,,,,,,,,,,,,,53,,,,,,,,,,,,,,455.99299994717876,,response,,,,99,,,,,,,Space,keypress(Space),,,,,,,,---- -- ----- -- ------ - ------- --- ----------<br>------------- ------ ------ ---- ---- ------- ----- -- ----<br>-------- ------- -- ---------- But - --- ----- ----- ----<br>---- --- --- ----- --- ---- ---- ------- ----- ---- -------<br>--- --- -- ----- -- --- ---- -- --- ---- -- ------ ------<br>--- ----- -- ----,117142.83000002615,117141.77999994718,116669.218,116683.15499997698,116685.787,117152.256,,22,But
screen,html.Screen,2_1_0_1_23,2021-04-26T09:32:12.586Z,,,,,,,,,,,,,,,,,53,,,,,,,,,,,,,,304.0989999147714,,response,,,,99,,,,,,,Space,keypress(Space),,,,,,,,---- -- ----- -- ------ - ------- --- ----------<br>------------- ------ ------ ---- ---- ------- ----- -- ----<br>-------- ------- -- ---------- --- a --- ----- ----- ----<br>---- --- --- ----- --- ---- ---- ------- ----- ---- -------<br>--- --- -- ----- -- --- ---- -- --- ---- -- ------ ------<br>--- ----- -- ----,117457.21000002231,117456.35499991477,117135.795,117143.00999999978,117152.256,117469.038,,23,a
screen,html.Screen,2_1_0_1_24,2021-04-26T09:32:12.913Z,,,,,,,,,,,,,,,,,53,,,,,,,,,,,,,,314.2369999361108,,response,,,,99,,,,,,,Space,keypress(Space),,,,,,,,---- -- ----- -- ------ - ------- --- ----------<br>------------- ------ ------ ---- ---- ------- ----- -- ----<br>-------- ------- -- ---------- --- - new ----- ----- ----<br>---- --- --- ----- --- ---- ---- ------- ----- ---- -------<br>--- --- -- ----- -- --- ---- -- --- ---- -- ------ ------<br>--- ----- -- ----,117784.0299999807,117783.27499993611,117452.277,117457.3949999176,117469.038,117806.931,,24,new
screen,html.Screen,2_1_0_1_25,2021-04-26T09:32:13.263Z,,,,,,,,,,,,,,,,,53,,,,,,,,,,,,,,325.52399995537417,,response,,,,99,,,,,,,Space,keypress(Space),,,,,,,,---- -- ----- -- ------ - ------- --- ----------<br>------------- ------ ------ ---- ---- ------- ----- -- ----<br>-------- ------- -- ---------- --- - --- study ----- ----<br>---- --- --- ----- --- ---- ---- ------- ----- ---- -------<br>--- --- -- ----- -- --- ---- -- --- ---- -- ------ ------<br>--- ----- -- ----,118133.47499992233,118132.45499995537,117768.803,117784.20499991626,117806.931,118135.238,,25,study
screen,html.Screen,2_1_0_1_26,2021-04-26T09:32:13.622Z,,,,,,,,,,,,,,,,,53,,,,,,,,,,,,,,356.9370000212366,,response,,,,99,,,,,,,Space,keypress(Space),,,,,,,,---- -- ----- -- ------ - ------- --- ----------<br>------------- ------ ------ ---- ---- ------- ----- -- ----<br>-------- ------- -- ---------- --- - --- ----- finds ----<br>---- --- --- ----- --- ---- ---- ------- ----- ---- -------<br>--- --- -- ----- -- --- ---- -- --- ---- -- ------ ------<br>--- ----- -- ----,118492.94000002556,118492.17500002123,118118.707,118133.65999993403,118135.238,118501.777,,26,finds
screen,html.Screen,2_1_0_1_27,2021-04-26T09:32:13.923Z,,,,,,,,,,,,,,,,,53,,,,,,,,,,,,,,290.78800001065247,,response,,,,99,,,,,,,Space,keypress(Space),,,,,,,,---- -- ----- -- ------ - ------- --- ----------<br>------------- ------ ------ ---- ---- ------- ----- -- ----<br>-------- ------- -- ---------- --- - --- ----- ----- that<br>---- --- --- ----- --- ---- ---- ------- ----- ---- -------<br>--- --- -- ----- -- --- ---- -- --- ---- -- ------ ------<br>--- ----- -- ----,118793.58499997761,118792.56500001065,118485.264,118493.11499996111,118501.777,118801.597,,27,that
screen,html.Screen,2_1_0_1_28,2021-04-26T09:32:14.402Z,,,,,,,,,,,,,,,,,53,,,,,,,,,,,,,,470.1229999606294,,response,,,,99,,,,,,,Space,keypress(Space),,,,,,,,---- -- ----- -- ------ - ------- --- ----------<br>------------- ------ ------ ---- ---- ------- ----- -- ----<br>-------- ------- -- ---------- --- - --- ----- ----- ----<br>it's --- --- ----- --- ---- ---- ------- ----- ---- -------<br>--- --- -- ----- -- --- ---- -- --- ---- -- ------ ------<br>--- ----- -- ----,119272.85499998834,119271.71999996062,118785.394,118793.76499995124,118801.597,119284.937,,28,it's
screen,html.Screen,2_1_0_1_29,2021-04-26T09:32:14.701Z,,,,,,,,,,,,,,,,,53,,,,,,,,,,,,,,285.94799993550987,,response,,,,99,,,,,,,Space,keypress(Space),,,,,,,,---- -- ----- -- ------ - ------- --- ----------<br>------------- ------ ------ ---- ---- ------- ----- -- ----<br>-------- ------- -- ---------- --- - --- ----- ----- ----<br>---- not --- ----- --- ---- ---- ------- ----- ---- -------<br>--- --- -- ----- -- --- ---- -- --- ---- -- ------ ------<br>--- ----- -- ----,119571.58999994863,119570.88499993552,119268.336,119273.04000000004,119284.937,119584.791,,29,not
screen,html.Screen,2_1_0_1_30,2021-04-26T09:32:15.179Z,,,,,,,,,,,,,,,,,53,,,,,,,,,,,,,,464.28399998808163,,response,,,,99,,,,,,,Space,keypress(Space),,,,,,,,---- -- ----- -- ------ - ------- --- ----------<br>------------- ------ ------ ---- ---- ------- ----- -- ----<br>-------- ------- -- ---------- --- - --- ----- ----- ----<br>---- --- how ----- --- ---- ---- ------- ----- ---- -------<br>--- --- -- ----- -- --- ---- -- --- ---- -- ------ ------<br>--- ----- -- ----,120050.26499996893,120049.07499998808,119568.197,119571.76999992225,119584.791,120068.357,,30,how
screen,html.Screen,2_1_0_1_31,2021-04-26T09:32:15.730Z,,,,,,,,,,,,,,,,,53,,,,,,,,,,,,,,531.083000019964,,response,,,,99,,,,,,,Space,keypress(Space),,,,,,,,---- -- ----- -- ------ - ------- --- ----------<br>------------- ------ ------ ---- ---- ------- ----- -- ----<br>-------- ------- -- ---------- --- - --- ----- ----- ----<br>---- --- --- close --- ---- ---- ------- ----- ---- -------<br>--- --- -- ----- -- --- ---- -- --- ---- -- ------ ------<br>--- ----- -- ----,120600.77000001911,120599.44000001997,120034.794,120050.4550000187,120068.357,120617.705,,31,close
screen,html.Screen,2_1_0_1_32,2021-04-26T09:32:16.234Z,,,,,,,,,,,,,,,,,53,,,,,,,,,,,,,,488.32999994613056,,response,,,,99,,,,,,,Space,keypress(Space),,,,,,,,---- -- ----- -- ------ - ------- --- ----------<br>------------- ------ ------ ---- ---- ------- ----- -- ----<br>-------- ------- -- ---------- --- - --- ----- ----- ----<br>---- --- --- ----- you ---- ---- ------- ----- ---- -------<br>--- --- -- ----- -- --- ---- -- --- ---- -- ------ ------<br>--- ----- -- ----,121107.02999995556,121106.03499994613,120601.284,120601.00000002421,120617.705,121117.528,,32,you
screen,html.Screen,2_1_0_1_33,2021-04-26T09:32:16.862Z,,,,,,,,,,,,,,,,,53,,,,,,,,,,,,,,615.8519999905693,,response,,,,99,,,,,,,Space,keypress(Space),,,,,,,,---- -- ----- -- ------ - ------- --- ----------<br>------------- ------ ------ ---- ---- ------- ----- -- ----<br>-------- ------- -- ---------- --- - --- ----- ----- ----<br>---- --- --- ----- --- feel ---- ------- ----- ---- -------<br>--- --- -- ----- -- --- ---- -- --- ---- -- ------ ------<br>--- ----- -- ----,121734.85999996774,121733.37999999058,121101.069,121107.22000000533,121117.528,121750.636,,33,feel
screen,html.Screen,2_1_0_1_34,2021-04-26T09:32:17.187Z,,,,,,,,,,,,,,,,,53,,,,,,,,,,,,,,308.10899992933264,,response,,,,99,,,,,,,Space,keypress(Space),,,,,,,,---- -- ----- -- ------ - ------- --- ----------<br>------------- ------ ------ ---- ---- ------- ----- -- ----<br>-------- ------- -- ---------- --- - --- ----- ----- ----<br>---- --- --- ----- --- ---- that ------- ----- ---- -------<br>--- --- -- ----- -- --- ---- -- --- ---- -- ------ ------<br>--- ----- -- ----,122059.7800000105,122058.74499992933,121734.21,121736.59500002395,121750.636,122067.244,,34,that
screen,html.Screen,2_1_0_1_35,2021-04-26T09:32:17.621Z,,,,,,,,,,,,,,,,,53,,,,,,,,,,,,,,425.78099997428944,,response,,,,99,,,,,,,Space,keypress(Space),,,,,,,,---- -- ----- -- ------ - ------- --- ----------<br>------------- ------ ------ ---- ---- ------- ----- -- ----<br>-------- ------- -- ---------- --- - --- ----- ----- ----<br>---- --- --- ----- --- ---- ---- matters ----- ---- -------<br>--- --- -- ----- -- --- ---- -- --- ---- -- ------ ------<br>--- ----- -- ----,122494.0400000196,122493.0249999743,122050.7,122059.9500000244,122067.244,122500.412,,35,matters
screen,html.Screen,2_1_0_1_36,2021-04-26T09:32:18.055Z,,,,,,,,,,,,,,,,,53,,,,,,,,,,,,,,426.34300002224336,,response,,,,99,,,,,,,Space,keypress(Space),,,,,,,,"---- -- ----- -- ------ - ------- --- ----------<br>------------- ------ ------ ---- ---- ------- ----- -- ----<br>-------- ------- -- ---------- --- - --- ----- ----- ----<br>---- --- --- ----- --- ---- ---- ------- most, ---- -------<br>--- --- -- ----- -- --- ---- -- --- ---- -- ------ ------<br>--- ----- -- ----",122927.76499991305,122926.75500002224,122483.901,122495.12500001583,122500.412,122933.574,,36,"most,"
screen,html.Screen,2_1_0_1_37,2021-04-26T09:32:18.498Z,,,,,,,,,,,,,,,,,53,,,,,,,,,,,,,,436.62600000484963,,response,,,,99,,,,,,,Space,keypress(Space),,,,,,,,---- -- ----- -- ------ - ------- --- ----------<br>------------- ------ ------ ---- ---- ------- ----- -- ----<br>-------- ------- -- ---------- --- - --- ----- ----- ----<br>---- --- --- ----- --- ---- ---- ------- ----- it's -------<br>--- --- -- ----- -- --- ---- -- --- ---- -- ------ ------<br>--- ----- -- ----,123370.90500001796,123370.20000000484,122917.103,122927.93000000529,122933.574,123383.541,,37,it's
screen,html.Screen,2_1_0_1_38,2021-04-26T09:32:18.868Z,,,,,,,,,,,,,,,,,53,,,,,,,,,,,,,,356.2039999116387,,response,,,,99,,,,,,,Space,keypress(Space),,,,,,,,---- -- ----- -- ------ - ------- --- ----------<br>------------- ------ ------ ---- ---- ------- ----- -- ----<br>-------- ------- -- ---------- --- - --- ----- ----- ----<br>---- --- --- ----- --- ---- ---- ------- ----- ---- whether<br>--- --- -- ----- -- --- ---- -- --- ---- -- ------ ------<br>--- ----- -- ----,123740.87999993935,123739.74499991164,123366.952,123371.07999995351,123383.541,123749.94,,38,whether
screen,html.Screen,2_1_0_1_39,2021-04-26T09:32:19.277Z,,,,,,,,,,,,,,,,,53,,,,,,,,,,,,,,399.5199999859906,,response,,,,99,,,,,,,Space,keypress(Space),,,,,,,,---- -- ----- -- ------ - ------- --- ----------<br>------------- ------ ------ ---- ---- ------- ----- -- ----<br>-------- ------- -- ---------- --- - --- ----- ----- ----<br>---- --- --- ----- --- ---- ---- ------- ----- ---- -------<br>you --- -- ----- -- --- ---- -- --- ---- -- ------ ------<br>--- ----- -- ----,124150.41000000201,124149.459999986,123733.633,123741.05499999132,123749.94,124166.543,,39,you
screen,html.Screen,2_1_0_1_40,2021-04-26T09:32:19.670Z,,,,,,,,,,,,,,,,,53,,,,,,,,,,,,,,375.4120000224211,,response,,,,99,,,,,,,Space,keypress(Space),,,,,,,,---- -- ----- -- ------ - ------- --- ----------<br>------------- ------ ------ ---- ---- ------- ----- -- ----<br>-------- ------- -- ---------- --- - --- ----- ----- ----<br>---- --- --- ----- --- ---- ---- ------- ----- ---- -------<br>--- are -- ----- -- --- ---- -- --- ---- -- ------ ------<br>--- ----- -- ----,124543.03499998059,124541.95500002243,124149.976,124150.5800000159,124166.543,124549.772,,40,are
screen,html.Screen,2_1_0_1_41,2021-04-26T09:32:20.055Z,,,,,,,,,,,,,,,,,53,,,,,,,,,,,,,,376.7779999746708,,response,,,,99,,,,,,,Space,keypress(Space),,,,,,,,---- -- ----- -- ------ - ------- --- ----------<br>------------- ------ ------ ---- ---- ------- ----- -- ----<br>-------- ------- -- ---------- --- - --- ----- ----- ----<br>---- --- --- ----- --- ---- ---- ------- ----- ---- -------<br>--- --- as ----- -- --- ---- -- --- ---- -- ------ ------<br>--- ----- -- ----,124928.34999994375,124926.54999997467,124533.199,124543.19999995641,124549.772,124932.949,,41,as
screen,html.Screen,2_1_0_1_42,2021-04-26T09:32:20.423Z,,,,,,,,,,,,,,,,,53,,,,,,,,,,,,,,361.6459999848448,,response,,,,99,,,,,,,Space,keypress(Space),,,,,,,,---- -- ----- -- ------ - ------- --- ----------<br>------------- ------ ------ ---- ---- ------- ----- -- ----<br>-------- ------- -- ---------- --- - --- ----- ----- ----<br>---- --- --- ----- --- ---- ---- ------- ----- ---- -------<br>--- --- -- close -- --- ---- -- --- ---- -- ------ ------<br>--- ----- -- ----,125295.71500001475,125294.59499998484,124916.385,124928.51999995764,124932.949,125299.426,,42,close
screen,html.Screen,2_1_0_1_43,2021-04-26T09:32:20.860Z,,,,,,,,,,,,,,,,,53,,,,,,,,,,,,,,432.4239999819256,,response,,,,99,,,,,,,Space,keypress(Space),,,,,,,,---- -- ----- -- ------ - ------- --- ----------<br>------------- ------ ------ ---- ---- ------- ----- -- ----<br>-------- ------- -- ---------- --- - --- ----- ----- ----<br>---- --- --- ----- --- ---- ---- ------- ----- ---- -------<br>--- --- -- ----- as --- ---- -- --- ---- -- ------ ------<br>--- ----- -- ----,125733.39499998838,125731.84999998193,125282.905,125295.8899999503,125299.426,125749.242,,43,as
screen,html.Screen,2_1_0_1_44,2021-04-26T09:32:21.235Z,,,,,,,,,,,,,,,,,53,,,,,,,,,,,,,,358.3879999840574,,response,,,,99,,,,,,,Space,keypress(Space),,,,,,,,---- -- ----- -- ------ - ------- --- ----------<br>------------- ------ ------ ---- ---- ------- ----- -- ----<br>-------- ------- -- ---------- --- - --- ----- ----- ----<br>---- --- --- ----- --- ---- ---- ------- ----- ---- -------<br>--- --- -- ----- -- you ---- -- --- ---- -- ------ ------<br>--- ----- -- ----,126108.3749999525,126107.62999998406,125733.03,125733.56500000227,125749.242,126115.755,,44,you
screen,html.Screen,2_1_0_1_45,2021-04-26T09:32:22.063Z,,,,,,,,,,,,,,,,,53,,,,,,,,,,,,,,819.2550000156043,,response,,,,99,,,,,,,Space,keypress(Space),,,,,,,,---- -- ----- -- ------ - ------- --- ----------<br>------------- ------ ------ ---- ---- ------- ----- -- ----<br>-------- ------- -- ---------- --- - --- ----- ----- ----<br>---- --- --- ----- --- ---- ---- ------- ----- ---- -------<br>--- --- -- ----- -- --- want -- --- ---- -- ------ ------<br>--- ----- -- ----,126936.0399999423,126935.01000001561,126099.28,126110.28999998234,126115.755,126948.814,,45,want
screen,html.Screen,2_1_0_1_46,2021-04-26T09:32:22.406Z,,,,,,,,,,,,,,,,,53,,,,,,,,,,,,,,329.0209999571234,,response,,,,99,,,,,,,Space,keypress(Space),,,,,,,,---- -- ----- -- ------ - ------- --- ----------<br>------------- ------ ------ ---- ---- ------- ----- -- ----<br>-------- ------- -- ---------- --- - --- ----- ----- ----<br>---- --- --- ----- --- ---- ---- ------- ----- ---- -------<br>--- --- -- ----- -- --- ---- to --- ---- -- ------ ------<br>--- ----- -- ----,127278.84499996435,127277.83499995712,126932.439,126936.20999995619,126948.814,127282.036,,46,to
screen,html.Screen,2_1_0_1_47,2021-04-26T09:32:22.833Z,,,,,,,,,,,,,,,,,53,,,,,,,,,,,,,,422.79899998227484,,response,,,,99,,,,,,,Space,keypress(Space),,,,,,,,"---- -- ----- -- ------ - ------- --- ----------<br>------------- ------ ------ ---- ---- ------- ----- -- ----<br>-------- ------- -- ---------- --- - --- ----- ----- ----<br>---- --- --- ----- --- ---- ---- ------- ----- ---- -------<br>--- --- -- ----- -- --- ---- -- be, ---- -- ------ ------<br>--- ----- -- ----",127705.8749999851,127704.83499998227,127265.532,127279.00999994017,127282.036,127715.191,,47,"be,"
screen,html.Screen,2_1_0_1_48,2021-04-26T09:32:23.240Z,,,,,,,,,,,,,,,,,53,,,,,,,,,,,,,,396.47900001295784,,response,,,,99,,,,,,,Space,keypress(Space),,,,,,,,---- -- ----- -- ------ - ------- --- ----------<br>------------- ------ ------ ---- ---- ------- ----- -- ----<br>-------- ------- -- ---------- --- - --- ----- ----- ----<br>---- --- --- ----- --- ---- ---- ------- ----- ---- -------<br>--- --- -- ----- -- --- ---- -- --- even -- ------ ------<br>--- ----- -- ----,128112.66999994405,128111.67000001296,127698.77,127706.03999996092,127715.191,128115.086,,48,even
screen,html.Screen,2_1_0_1_49,2021-04-26T09:32:23.607Z,,,,,,,,,,,,,,,,,53,,,,,,,,,,,,,,364.1489999770565,,response,,,,99,,,,,,,Space,keypress(Space),,,,,,,,---- -- ----- -- ------ - ------- --- ----------<br>------------- ------ ------ ---- ---- ------- ----- -- ----<br>-------- ------- -- ---------- --- - --- ----- ----- ----<br>---- --- --- ----- --- ---- ---- ------- ----- ---- -------<br>--- --- -- ----- -- --- ---- -- --- ---- if ------ ------<br>--- ----- -- ----,128480.25000002235,128479.23499997705,128098.615,128112.82999999821,128115.086,128499.044,,49,if
screen,html.Screen,2_1_0_1_50,2021-04-26T09:32:23.918Z,,,,,,,,,,,,,,,,,53,,,,,,,,,,,,,,290.4959999106359,,response,,,,99,,,,,,,Space,keypress(Space),,,,,,,,---- -- ----- -- ------ - ------- --- ----------<br>------------- ------ ------ ---- ---- ------- ----- -- ----<br>-------- ------- -- ---------- --- - --- ----- ----- ----<br>---- --- --- ----- --- ---- ---- ------- ----- ---- -------<br>--- --- -- ----- -- --- ---- -- --- ---- -- that's ------<br>--- ----- -- ----,128790.59499991126,128789.53999991063,128465.143,128480.4099999601,128499.044,128798.173,,50,that's
screen,html.Screen,2_1_0_1_51,2021-04-26T09:32:24.311Z,,,,,,,,,,,,,,,,,53,,,,,,,,,,,,,,385.35699992203445,,response,,,,99,,,,,,,Space,keypress(Space),,,,,,,,---- -- ----- -- ------ - ------- --- ----------<br>------------- ------ ------ ---- ---- ------- ----- -- ----<br>-------- ------- -- ---------- --- - --- ----- ----- ----<br>---- --- --- ----- --- ---- ---- ------- ----- ---- -------<br>--- --- -- ----- -- --- ---- -- --- ---- -- ------ really<br>--- ----- -- ----,129184.55999996513,129183.52999992203,128781.658,128790.76499992516,128798.173,129198.479,,51,really
screen,html.Screen,2_1_0_1_52,2021-04-26T09:32:24.720Z,,,,,,,,,,,,,,,,,53,,,,,,,,,,,,,,393.6309999686637,,response,,,,99,,,,,,,Space,keypress(Space),,,,,,,,---- -- ----- -- ------ - ------- --- ----------<br>------------- ------ ------ ---- ---- ------- ----- -- ----<br>-------- ------- -- ---------- --- - --- ----- ----- ----<br>---- --- --- ----- --- ---- ---- ------- ----- ---- -------<br>--- --- -- ----- -- --- ---- -- --- ---- -- ------ ------<br>not ----- -- ----,129593.14499993343,129592.10999996867,129181.548,129184.7200000193,129198.479,129597.896,,52,not
screen,html.Screen,2_1_0_1_53,2021-04-26T09:32:25.293Z,,,,,,,,,,,,,,,,,53,,,,,,,,,,,,,,567.0639999655104,,response,,,,99,,,,,,,Space,keypress(Space),,,,,,,,---- -- ----- -- ------ - ------- --- ----------<br>------------- ------ ------ ---- ---- ------- ----- -- ----<br>-------- ------- -- ---------- --- - --- ----- ----- ----<br>---- --- --- ----- --- ---- ---- ------- ----- ---- -------<br>--- --- -- ----- -- --- ---- -- --- ---- -- ------ ------<br>--- close -- ----,130166.22499993537,130164.9599999655,129581.408,129593.31000002567,129597.896,130181.04,,53,close
screen,html.Screen,2_1_0_1_54,2021-04-26T09:32:25.576Z,,,,,,,,,,,,,,,,,53,,,,,,,,,,,,,,266.7949999990378,,response,,,,99,,,,,,,Space,keypress(Space),,,,,,,,---- -- ----- -- ------ - ------- --- ----------<br>------------- ------ ------ ---- ---- ------- ----- -- ----<br>-------- ------- -- ---------- --- - --- ----- ----- ----<br>---- --- --- ----- --- ---- ---- ------- ----- ---- -------<br>--- --- -- ----- -- --- ---- -- --- ---- -- ------ ------<br>--- ----- at ----,130449.26499994472,130447.83499999903,130164.602,130166.38999991119,130181.04,130464.322,,54,at
screen,html.Screen,2_1_0_1_55,2021-04-26T09:32:25.993Z,,,,,,,,,,,,,,,,,53,,,,,,,,,,,,,,400.64299995701003,,response,,,,99,,,,,,,Space,keypress(Space),,,,,,,,---- -- ----- -- ------ - ------- --- ----------<br>------------- ------ ------ ---- ---- ------- ----- -- ----<br>-------- ------- -- ---------- --- - --- ----- ----- ----<br>---- --- --- ----- --- ---- ---- ------- ----- ---- -------<br>--- --- -- ----- -- --- ---- -- --- ---- -- ------ ------<br>--- ----- -- all.,130866.28999991808,130864.96499995701,130447.672,130449.47999995202,130464.322,130880.776,,55,all.
Item 99,flow.Loop,2_1_0_1,2021-04-26T09:32:25.994Z,,,,,,,,,,,,,,,,,,,,,,,,,,,,,,,23592.58599995701,,completion,,,,,A,,,,,,,,,,,silence,,,,,130866.58999999054,130864.96499995701,107239.102,107240.289999987,107272.379,130880.776,,,
Question 1,html.Screen,2_1_0_2,2021-04-26T09:32:29.014Z,,,,,,,,,,,,,,,,,,,,,,,,,,,,true,FALSE,,3005.193999944793,,response,,,,99,A,,,,,,FALSE,click #choice-2,,,,silence,,,,,133887.54499994684,133885.9699999448,130864.502,130866.73000000883,130880.776,133896.467,,,
Question 2,html.Screen,2_1_0_3,2021-04-26T09:32:34.462Z,,,,,,,,,,,,,,,,,,,,,,,,,,,,true,TRUE,,5437.1579999701935,,response,,,,99,A,,,,,,TRUE,click #choice-1,,,,silence,,,,,139335.03999991808,139333.6249999702,133879.849,133887.72999995854,133896.467,139344.435,,,
Item 99,flow.Sequence,2_1_0,2021-04-26T09:32:34.462Z,,,,,,,,,,,,,,,,,,,,,,,,,,,,,,,42074.213999970205,,completion,,,,,,,,,,,,,,,,,,,,,139335.284999921,139333.6249999702,97242.752,97256.28999993205,97259.411,139344.435,,,
Holding screen,html.Screen,2_1_1_0,2021-04-26T09:32:44.452Z,,,,,,,,,,,,,,,,,,,,,,,,,,,,,,,9996.564000000013,,timeout,,,,,,,,,,,,,,,,,,,,,149325.56499994826,149324.807,139327.972,139335.44499997515,139344.435,149340.999,,,
screen,html.Screen,2_1_1_1_0,2021-04-26T09:32:44.996Z,,,,,,,,,,,,,,,,,54,,,,,,,,,,,,,,526.4609999794629,,response,,,,100,,,,,,,Space,keypress(Space),,,,,,,,At --- ---- --- ------ ----- ------- ---- -- --- ------- --<br>------- ---------- ------ -- ----- -- ----- -- ---- ------<br>--- ----- --- --- ------ -------- ----- --- ------ ----- --<br>----- ----- ---------- --- --- ------ ------ ---- -- ------<br>------- --- ------ ----- --- ---- ------- -- ---- --- --<br>------- ------,149868.75000002328,149867.45999997947,149324.807,149325.77499991748,149340.999,149874.111,,0,At
screen,html.Screen,2_1_1_1_1,2021-04-26T09:32:45.382Z,,,,,,,,,,,,,,,,,54,,,,,,,,,,,,,,379.7089999835298,,response,,,,100,,,,,,,Space,keypress(Space),,,,,,,,-- the ---- --- ------ ----- ------- ---- -- --- ------- --<br>------- ---------- ------ -- ----- -- ----- -- ---- ------<br>--- ----- --- --- ------ -------- ----- --- ------ ----- --<br>----- ----- ---------- --- --- ------ ------ ---- -- ------<br>------- --- ------ ----- --- ---- ------- -- ---- --- --<br>------- ------,150254.75500000175,150253.81999998353,149857.716,149868.9149999991,149874.111,150257.329,,1,the
screen,html.Screen,2_1_1_1_2,2021-04-26T09:32:45.970Z,,,,,,,,,,,,,,,,,54,,,,,,,,,,,,,,583.8159999548516,,response,,,,100,,,,,,,Space,keypress(Space),,,,,,,,-- --- time --- ------ ----- ------- ---- -- --- ------- --<br>------- ---------- ------ -- ----- -- ----- -- ---- ------<br>--- ----- --- --- ------ -------- ----- --- ------ ----- --<br>----- ----- ---------- --- --- ------ ------ ---- -- ------<br>------- --- ------ ----- --- ---- ------- -- ---- --- --<br>------- ------,150842.6899999613,150841.14499995485,150240.852,150254.91999997757,150257.329,150857.141,,2,time
screen,html.Screen,2_1_1_1_3,2021-04-26T09:32:46.398Z,,,,,,,,,,,,,,,,,54,,,,,,,,,,,,,,413.35899998416426,,response,,,,100,,,,,,,Space,keypress(Space),,,,,,,,-- --- ---- the ------ ----- ------- ---- -- --- ------- --<br>------- ---------- ------ -- ----- -- ----- -- ---- ------<br>--- ----- --- --- ------ -------- ----- --- ------ ----- --<br>----- ----- ---------- --- --- ------ ------ ---- -- ------<br>------- --- ------ ----- --- ---- ------- -- ---- --- --<br>------- ------,151271.40999992844,151270.49999998417,150840.706,150842.89500000887,150857.141,151273.638,,3,the
screen,html.Screen,2_1_1_1_4,2021-04-26T09:32:46.817Z,,,,,,,,,,,,,,,,,54,,,,,,,,,,,,,,415.61699997566757,,response,,,,100,,,,,,,Space,keypress(Space),,,,,,,,-- --- ---- --- French ----- ------- ---- -- --- ------- --<br>------- ---------- ------ -- ----- -- ----- -- ---- ------<br>--- ----- --- --- ------ -------- ----- --- ------ ----- --<br>----- ----- ---------- --- --- ------ ------ ---- -- ------<br>------- --- ------ ----- --- ---- ------- -- ---- --- --<br>------- ------,151690.56000001729,151689.25499997567,151257.158,151271.56499994453,151273.638,151706.847,,4,French
screen,html.Screen,2_1_1_1_5,2021-04-26T09:32:47.307Z,,,,,,,,,,,,,,,,,54,,,,,,,,,,,,,,472.07800001470605,,response,,,,100,,,,,,,Space,keypress(Space),,,,,,,,-- --- ---- --- ------ crown ------- ---- -- --- ------- --<br>------- ---------- ------ -- ----- -- ----- -- ---- ------<br>--- ----- --- --- ------ -------- ----- --- ------ ----- --<br>----- ----- ---------- --- --- ------ ------ ---- -- ------<br>------- --- ------ ----- --- ---- ------- -- ---- --- --<br>------- ------,152179.85499999486,152178.92500001471,151690.358,151690.76499994844,151706.847,152190.373,,5,crown
screen,html.Screen,2_1_1_1_6,2021-04-26T09:32:48.024Z,,,,,,,,,,,,,,,,,54,,,,,,,,,,,,,,705.9369999819028,,response,,,,100,,,,,,,Space,keypress(Space),,,,,,,,-- --- ---- --- ------ ----- secured ---- -- --- ------- --<br>------- ---------- ------ -- ----- -- ----- -- ---- ------<br>--- ----- --- --- ------ -------- ----- --- ------ ----- --<br>----- ----- ---------- --- --- ------ ------ ---- -- ------<br>------- --- ------ ----- --- ---- ------- -- ---- --- --<br>------- ------,152897.2000000067,152896.3099999819,152173.525,152180.0149999326,152190.373,152906.415,,6,secured
screen,html.Screen,2_1_1_1_7,2021-04-26T09:32:48.626Z,,,,,,,,,,,,,,,,,54,,,,,,,,,,,,,,592.0749999108084,,response,,,,100,,,,,,,Space,keypress(Space),,,,,,,,-- --- ---- --- ------ ----- ------- much -- --- ------- --<br>------- ---------- ------ -- ----- -- ----- -- ---- ------<br>--- ----- --- --- ------ -------- ----- --- ------ ----- --<br>----- ----- ---------- --- --- ------ ------ ---- -- ------<br>------- --- ------ ----- --- ---- ------- -- ---- --- --<br>------- ------,153499.1849999642,153498.48999991082,152890.051,152897.36499998253,152906.415,153506.188,,7,much
screen,html.Screen,2_1_1_1_8,2021-04-26T09:32:48.991Z,,,,,,,,,,,,,,,,,54,,,,,,,,,,,,,,356.6569999960193,,response,,,,100,,,,,,,Space,keypress(Space),,,,,,,,-- --- ---- --- ------ ----- ------- ---- of --- ------- --<br>------- ---------- ------ -- ----- -- ----- -- ---- ------<br>--- ----- --- --- ------ -------- ----- --- ------ ----- --<br>----- ----- ---------- --- --- ------ ------ ---- -- ------<br>------- --- ------ ----- --- ---- ------- -- ---- --- --<br>------- ------,153863.84000000544,153862.844999996,153489.773,153499.34500001837,153506.188,153872.739,,8,of
screen,html.Screen,2_1_1_1_9,2021-04-26T09:32:49.316Z,,,,,,,,,,,,,,,,,54,,,,,,,,,,,,,,315.0109999245615,,response,,,,100,,,,,,,Space,keypress(Space),,,,,,,,-- --- ---- --- ------ ----- ------- ---- -- its ------- --<br>------- ---------- ------ -- ----- -- ----- -- ---- ------<br>--- ----- --- --- ------ -------- ----- --- ------ ----- --<br>----- ----- ---------- --- --- ------ ------ ---- -- ------<br>------- --- ------ ----- --- ---- ------- -- ---- --- --<br>------- ------,154188.744999934,154187.74999992456,153856.284,153864.00499998126,153872.739,154206.02,,9,its
screen,html.Screen,2_1_1_1_10,2021-04-26T09:32:49.811Z,,,,,,,,,,,,,,,,,54,,,,,,,,,,,,,,477.3899999396235,,response,,,,100,,,,,,,Space,keypress(Space),,,,,,,,-- --- ---- --- ------ ----- ------- ---- -- --- revenue --<br>------- ---------- ------ -- ----- -- ----- -- ---- ------<br>--- ----- --- --- ------ -------- ----- --- ------ ----- --<br>----- ----- ---------- --- --- ------ ------ ---- -- ------<br>------- --- ------ ----- --- ---- ------- -- ---- --- --<br>------- ------,154684.41500002518,154683.4099999396,154173.308,154188.91000002623,154206.02,154689.135,,10,revenue
screen,html.Screen,2_1_1_1_11,2021-04-26T09:32:50.288Z,,,,,,,,,,,,,,,,,54,,,,,,,,,,,,,,470.45499993744306,,response,,,,100,,,,,,,Space,keypress(Space),,,,,,,,-- --- ---- --- ------ ----- ------- ---- -- --- ------- by<br>------- ---------- ------ -- ----- -- ----- -- ---- ------<br>--- ----- --- --- ------ -------- ----- --- ------ ----- --<br>----- ----- ---------- --- --- ------ ------ ---- -- ------<br>------- --- ------ ----- --- ---- ------- -- ---- --- --<br>------- ------,155160.95499997027,155159.58999993745,154672.585,154684.58499992266,154689.135,155172.6,,11,by
screen,html.Screen,2_1_1_1_12,2021-04-26T09:32:50.711Z,,,,,,,,,,,,,,,,,54,,,,,,,,,,,,,,410.4749999731721,,response,,,,100,,,,,,,Space,keypress(Space),,,,,,,,-- --- ---- --- ------ ----- ------- ---- -- --- ------- --<br>issuing ---------- ------ -- ----- -- ----- -- ---- ------<br>--- ----- --- --- ------ -------- ----- --- ------ ----- --<br>----- ----- ---------- --- --- ------ ------ ---- -- ------<br>------- --- ------ ----- --- ---- ------- -- ---- --- --<br>------- ------,155584.09499994013,155583.07499997318,155155.852,155161.17500001565,155172.6,155588.903,,12,issuing
screen,html.Screen,2_1_1_1_13,2021-04-26T09:32:51.166Z,,,,,,,,,,,,,,,,,54,,,,,,,,,,,,,,449.01199999352684,,response,,,,100,,,,,,,Space,keypress(Space),,,,,,,,-- --- ---- --- ------ ----- ------- ---- -- --- ------- --<br>------- government ------ -- ----- -- ----- -- ---- ------<br>--- ----- --- --- ------ -------- ----- --- ------ ----- --<br>----- ----- ---------- --- --- ------ ------ ---- -- ------<br>------- --- ------ ----- --- ---- ------- -- ---- --- --<br>------- ------,156039.4549999619,156037.91499999352,155572.461,155584.24999995623,155588.903,156055.333,,13,government
screen,html.Screen,2_1_1_1_14,2021-04-26T09:32:52.581Z,,,,,,,,,,,,,,,,,54,,,,,,,,,,,,,,1397.7170000109763,,response,,,,100,,,,,,,Space,keypress(Space),,,,,,,,-- --- ---- --- ------ ----- ------- ---- -- --- ------- --<br>------- ---------- bonds. -- ----- -- ----- -- ---- ------<br>--- ----- --- --- ------ -------- ----- --- ------ ----- --<br>----- ----- ---------- --- --- ------ ------ ---- -- ------<br>------- --- ------ ----- --- ---- ------- -- ---- --- --<br>------- ------,157454.07500001602,157453.050000011,156038.848,156039.6249999758,156055.333,157488.51,,14,bonds.
screen,html.Screen,2_1_1_1_15,2021-04-26T09:32:52.977Z,,,,,,,,,,,,,,,,,54,,,,,,,,,,,,,,360.73000001045875,,response,,,,100,,,,,,,Space,keypress(Space),,,,,,,,-- --- ---- --- ------ ----- ------- ---- -- --- ------- --<br>------- ---------- ------ In ----- -- ----- -- ---- ------<br>--- ----- --- --- ------ -------- ----- --- ------ ----- --<br>----- ----- ---------- --- --- ------ ------ ---- -- ------<br>------- --- ------ ----- --- ---- ------- -- ---- --- --<br>------- ------,157850.3100000089,157849.24000001047,157471.553,157454.27999994718,157488.51,157854.696,,15,In
screen,html.Screen,2_1_1_1_16,2021-04-26T09:32:53.987Z,,,,,,,,,,,,,,,,,54,,,,,,,,,,,,,,1004.254000023473,,response,,,,100,,,,,,,Space,keypress(Space),,,,,,,,"-- --- ---- --- ------ ----- ------- ---- -- --- ------- --<br>------- ---------- ------ -- 1727, -- ----- -- ---- ------<br>--- ----- --- --- ------ -------- ----- --- ------ ----- --<br>----- ----- ---------- --- --- ------ ------ ---- -- ------<br>------- --- ------ ----- --- ---- ------- -- ---- --- --<br>------- ------",158860.44499999844,158858.95000002347,157838.191,157850.47499998473,157854.696,158871.013,,16,"1727,"
screen,html.Screen,2_1_1_1_17,2021-04-26T09:32:54.403Z,,,,,,,,,,,,,,,,,54,,,,,,,,,,,,,,403.97699994713184,,response,,,,100,,,,,,,Space,keypress(Space),,,,,,,,-- --- ---- --- ------ ----- ------- ---- -- --- ------- --<br>------- ---------- ------ -- ----- in ----- -- ---- ------<br>--- ----- --- --- ------ -------- ----- --- ------ ----- --<br>----- ----- ---------- --- --- ------ ------ ---- -- ------<br>------- --- ------ ----- --- ---- ------- -- ---- --- --<br>------- ------,159276.1649999302,159274.98999994714,158854.724,158860.6049999362,158871.013,159287.52,,17,in
screen,html.Screen,2_1_1_1_18,2021-04-26T09:32:54.780Z,,,,,,,,,,,,,,,,,54,,,,,,,,,,,,,,364.40500001286273,,response,,,,100,,,,,,,Space,keypress(Space),,,,,,,,-- --- ---- --- ------ ----- ------- ---- -- --- ------- --<br>------- ---------- ------ -- ----- -- order -- ---- ------<br>--- ----- --- --- ------ -------- ----- --- ------ ----- --<br>----- ----- ---------- --- --- ------ ------ ---- -- ------<br>------- --- ------ ----- --- ---- ------- -- ---- --- --<br>------- ------,159652.9449999798,159651.92500001285,159270.973,159276.33499994408,159287.52,159679.171,,18,order
screen,html.Screen,2_1_1_1_19,2021-04-26T09:32:55.177Z,,,,,,,,,,,,,,,,,54,,,,,,,,,,,,,,370.19399998438894,,response,,,,100,,,,,,,Space,keypress(Space),,,,,,,,-- --- ---- --- ------ ----- ------- ---- -- --- ------- --<br>------- ---------- ------ -- ----- -- ----- to ---- ------<br>--- ----- --- --- ------ -------- ----- --- ------ ----- --<br>----- ----- ---------- --- --- ------ ------ ---- -- ------<br>------- --- ------ ----- --- ---- ------- -- ---- --- --<br>------- ------,160050.39499991108,160049.3649999844,159637.562,159653.10999995563,159679.171,160053.912,,19,to
screen,html.Screen,2_1_1_1_20,2021-04-26T09:32:55.531Z,,,,,,,,,,,,,,,,,54,,,,,,,,,,,,,,349.09800000907853,,response,,,,100,,,,,,,Space,keypress(Space),,,,,,,,-- --- ---- --- ------ ----- ------- ---- -- --- ------- --<br>------- ---------- ------ -- ----- -- ----- -- save ------<br>--- ----- --- --- ------ -------- ----- --- ------ ----- --<br>----- ----- ---------- --- --- ------ ------ ---- -- ------<br>------- --- ------ ----- --- ---- ------- -- ---- --- --<br>------- ------,160404.49500002433,160403.0100000091,160037.35,160050.55499996524,160053.912,160420.536,,20,save
screen,html.Screen,2_1_1_1_21,2021-04-26T09:32:55.900Z,,,,,,,,,,,,,,,,,54,,,,,,,,,,,,,,351.1239999694226,,response,,,,100,,,,,,,Space,keypress(Space),,,,,,,,"-- --- ---- --- ------ ----- ------- ---- -- --- ------- --<br>------- ---------- ------ -- ----- -- ----- -- ---- money,<br>--- ----- --- --- ------ -------- ----- --- ------ ----- --<br>----- ----- ---------- --- --- ------ ------ ---- -- ------<br>------- --- ------ ----- --- ---- ------- -- ---- --- --<br>------- ------",160772.91499997955,160771.65999996942,160403.958,160404.6649999218,160420.536,160787.008,,21,"money,"
screen,html.Screen,2_1_1_1_22,2021-04-26T09:32:56.325Z,,,,,,,,,,,,,,,,,54,,,,,,,,,,,,,,409.656999937637,,response,,,,100,,,,,,,Space,keypress(Space),,,,,,,,-- --- ---- --- ------ ----- ------- ---- -- --- ------- --<br>------- ---------- ------ -- ----- -- ----- -- ---- ------<br>the ----- --- --- ------ -------- ----- --- ------ ----- --<br>----- ----- ---------- --- --- ------ ------ ---- -- ------<br>------- --- ------ ----- --- ---- ------- -- ---- --- --<br>------- ------,161197.68999994267,161196.66499993764,160770.498,160773.07999995537,160787.008,161203.538,,22,the
screen,html.Screen,2_1_1_1_23,2021-04-26T09:32:56.720Z,,,,,,,,,,,,,,,,,54,,,,,,,,,,,,,,388.10199999873294,,response,,,,100,,,,,,,Space,keypress(Space),,,,,,,,-- --- ---- --- ------ ----- ------- ---- -- --- ------- --<br>------- ---------- ------ -- ----- -- ----- -- ---- ------<br>--- state --- --- ------ -------- ----- --- ------ ----- --<br>----- ----- ---------- --- --- ------ ------ ---- -- ------<br>------- --- ------ ----- --- ---- ------- -- ---- --- --<br>------- ------,161592.68499992322,161591.63999999873,161187.033,161197.8549999185,161203.538,161603.385,,23,state
screen,html.Screen,2_1_1_1_24,2021-04-26T09:32:57.197Z,,,,,,,,,,,,,,,,,54,,,,,,,,,,,,,,465.1049999759998,,response,,,,100,,,,,,,Space,keypress(Space),,,,,,,,-- --- ---- --- ------ ----- ------- ---- -- --- ------- --<br>------- ---------- ------ -- ----- -- ----- -- ---- ------<br>--- ----- cut --- ------ -------- ----- --- ------ ----- --<br>----- ----- ---------- --- --- ------ ------ ---- -- ------<br>------- --- ------ ----- --- ---- ------- -- ---- --- --<br>------- ------,162070.12499996927,162068.489999976,161586.912,161592.8449999774,161603.385,162086.809,,24,cut
screen,html.Screen,2_1_1_1_25,2021-04-26T09:32:57.678Z,,,,,,,,,,,,,,,,,54,,,,,,,,,,,,,,463.5759999513393,,response,,,,100,,,,,,,Space,keypress(Space),,,,,,,,-- --- ---- --- ------ ----- ------- ---- -- --- ------- --<br>------- ---------- ------ -- ----- -- ----- -- ---- ------<br>--- ----- --- the ------ -------- ----- --- ------ ----- --<br>----- ----- ---------- --- --- ------ ------ ---- -- ------<br>------- --- ------ ----- --- ---- ------- -- ---- --- --<br>------- ------,162551.42999999225,162550.38499995135,162070.058,162070.34500001464,162086.809,162553.019,,25,the
screen,html.Screen,2_1_1_1_26,2021-04-26T09:32:58.200Z,,,,,,,,,,,,,,,,,54,,,,,,,,,,,,,,518.3510000196693,,response,,,,100,,,,,,,Space,keypress(Space),,,,,,,,-- --- ---- --- ------ ----- ------- ---- -- --- ------- --<br>------- ---------- ------ -- ----- -- ----- -- ---- ------<br>--- ----- --- --- bonds' -------- ----- --- ------ ----- --<br>----- ----- ---------- --- --- ------ ------ ---- -- ------<br>------- --- ------ ----- --- ---- ------- -- ---- --- --<br>------- ------,163073.51000001654,163071.37000001967,162536.569,162551.58999993,162553.019,163086.427,,26,bonds'
screen,html.Screen,2_1_1_1_27,2021-04-26T09:32:58.651Z,,,,,,,,,,,,,,,,,54,,,,,,,,,,,,,,436.8130000095407,,response,,,,100,,,,,,,Space,keypress(Space),,,,,,,,-- --- ---- --- ------ ----- ------- ---- -- --- ------- --<br>------- ---------- ------ -- ----- -- ----- -- ---- ------<br>--- ----- --- --- ------ interest ----- --- ------ ----- --<br>----- ----- ---------- --- --- ------ ------ ---- -- ------<br>------- --- ------ ----- --- ---- ------- -- ---- --- --<br>------- ------,163524.28000001237,163523.24000000954,163069.855,163073.67499999236,163086.427,163536,,27,interest
screen,html.Screen,2_1_1_1_28,2021-04-26T09:32:59.095Z,,,,,,,,,,,,,,,,,54,,,,,,,,,,,,,,430.63499996066093,,response,,,,100,,,,,,,Space,keypress(Space),,,,,,,,-- --- ---- --- ------ ----- ------- ---- -- --- ------- --<br>------- ---------- ------ -- ----- -- ----- -- ---- ------<br>--- ----- --- --- ------ -------- rate. --- ------ ----- --<br>----- ----- ---------- --- --- ------ ------ ---- -- ------<br>------- --- ------ ----- --- ---- ------- -- ---- --- --<br>------- ------,163967.89500000887,163966.63499996066,163519.554,163524.54000001308,163536,163995.253,,28,rate.
screen,html.Screen,2_1_1_1_29,2021-04-26T09:32:59.835Z,,,,,,,,,,,,,,,,,54,,,,,,,,,,,,,,711.8519999212876,,response,,,,100,,,,,,,Space,keypress(Space),,,,,,,,-- --- ---- --- ------ ----- ------- ---- -- --- ------- --<br>------- ---------- ------ -- ----- -- ----- -- ---- ------<br>--- ----- --- --- ------ -------- ----- The ------ ----- --<br>----- ----- ---------- --- --- ------ ------ ---- -- ------<br>------- --- ------ ----- --- ---- ------- -- ---- --- --<br>------- ------,164707.8249999322,164707.10499992128,163952.775,163968.0599999847,163995.253,164718.956,,29,The
screen,html.Screen,2_1_1_1_30,2021-04-26T09:33:00.598Z,,,,,,,,,,,,,,,,,54,,,,,,,,,,,,,,751.3489999661688,,response,,,,100,,,,,,,Space,keypress(Space),,,,,,,,-- --- ---- --- ------ ----- ------- ---- -- --- ------- --<br>------- ---------- ------ -- ----- -- ----- -- ---- ------<br>--- ----- --- --- ------ -------- ----- --- market ----- --<br>----- ----- ---------- --- --- ------ ------ ---- -- ------<br>------- --- ------ ----- --- ---- ------- -- ---- --- --<br>------- ------,165471.07999993023,165470.30499996617,164702.564,164707.99000002444,164718.956,165485.473,,30,market
screen,html.Screen,2_1_1_1_31,2021-04-26T09:33:00.914Z,,,,,,,,,,,,,,,,,54,,,,,,,,,,,,,,300.1119999468792,,response,,,,100,,,,,,,Space,keypress(Space),,,,,,,,-- --- ---- --- ------ ----- ------- ---- -- --- ------- --<br>------- ---------- ------ -- ----- -- ----- -- ---- ------<br>--- ----- --- --- ------ -------- ----- --- ------ value --<br>----- ----- ---------- --- --- ------ ------ ---- -- ------<br>------- --- ------ ----- --- ---- ------- -- ---- --- --<br>------- ------,165786.9499999797,165785.58499994688,165469.364,165471.2399999844,165485.473,165802.011,,31,value
screen,html.Screen,2_1_1_1_32,2021-04-26T09:33:01.229Z,,,,,,,,,,,,,,,,,54,,,,,,,,,,,,,,299.09400000883033,,response,,,,100,,,,,,,Space,keypress(Space),,,,,,,,-- --- ---- --- ------ ----- ------- ---- -- --- ------- --<br>------- ---------- ------ -- ----- -- ----- -- ---- ------<br>--- ----- --- --- ------ -------- ----- --- ------ ----- of<br>----- ----- ---------- --- --- ------ ------ ---- -- ------<br>------- --- ------ ----- --- ---- ------- -- ---- --- --<br>------- ------,166101.91500000656,166101.10500000883,165785.366,165787.12499991525,165802.011,166118.55,,32,of
screen,html.Screen,2_1_1_1_33,2021-04-26T09:33:01.510Z,,,,,,,,,,,,,,,,,54,,,,,,,,,,,,,,263.5499999297899,,response,,,,100,,,,,,,Space,keypress(Space),,,,,,,,-- --- ---- --- ------ ----- ------- ---- -- --- ------- --<br>------- ---------- ------ -- ----- -- ----- -- ---- ------<br>--- ----- --- --- ------ -------- ----- --- ------ ----- --<br>these ----- ---------- --- --- ------ ------ ---- -- ------<br>------- --- ------ ----- --- ---- ------- -- ---- --- --<br>------- ------,166382.86999997217,166382.09999992978,166101.994,166102.10000001825,166118.55,166385.255,,33,these
screen,html.Screen,2_1_1_1_34,2021-04-26T09:33:01.825Z,,,,,,,,,,,,,,,,,54,,,,,,,,,,,,,,311.7700000012992,,response,,,,100,,,,,,,Space,keypress(Space),,,,,,,,-- --- ---- --- ------ ----- ------- ---- -- --- ------- --<br>------- ---------- ------ -- ----- -- ----- -- ---- ------<br>--- ----- --- --- ------ -------- ----- --- ------ ----- --<br>----- bonds ---------- --- --- ------ ------ ---- -- ------<br>------- --- ------ ----- --- ---- ------- -- ---- --- --<br>------- ------,166697.71999993827,166697.0250000013,166368.545,166383.03000002634,166385.255,166701.619,,34,bonds
screen,html.Screen,2_1_1_1_35,2021-04-26T09:33:02.141Z,,,,,,,,,,,,,,,,,54,,,,,,,,,,,,,,311.3310000039055,,response,,,,100,,,,,,,Space,keypress(Space),,,,,,,,"-- --- ---- --- ------ ----- ------- ---- -- --- ------- --<br>------- ---------- ------ -- ----- -- ----- -- ---- ------<br>--- ----- --- --- ------ -------- ----- --- ------ ----- --<br>----- ----- plummeted, --- --- ------ ------ ---- -- ------<br>------- --- ------ ----- --- ---- ------- -- ---- --- --<br>------- ------",167014.1049999511,167012.9500000039,166685.09,166697.8849999141,166701.619,167018.172,,35,"plummeted,"
screen,html.Screen,2_1_1_1_36,2021-04-26T09:33:02.554Z,,,,,,,,,,,,,,,,,54,,,,,,,,,,,,,,407.61800000842777,,response,,,,100,,,,,,,Space,keypress(Space),,,,,,,,-- --- ---- --- ------ ----- ------- ---- -- --- ------- --<br>------- ---------- ------ -- ----- -- ----- -- ---- ------<br>--- ----- --- --- ------ -------- ----- --- ------ ----- --<br>----- ----- ---------- and --- ------ ------ ---- -- ------<br>------- --- ------ ----- --- ---- ------- -- ---- --- --<br>------- ------,167426.93999991752,167425.79000000842,167001.555,167014.2699999269,167018.172,167434.678,,36,and
screen,html.Screen,2_1_1_1_37,2021-04-26T09:33:02.818Z,,,,,,,,,,,,,,,,,54,,,,,,,,,,,,,,255.07699994120048,,response,,,,100,,,,,,,Space,keypress(Space),,,,,,,,-- --- ---- --- ------ ----- ------- ---- -- --- ------- --<br>------- ---------- ------ -- ----- -- ----- -- ---- ------<br>--- ----- --- --- ------ -------- ----- --- ------ ----- --<br>----- ----- ---------- --- the ------ ------ ---- -- ------<br>------- --- ------ ----- --- ---- ------- -- ---- --- --<br>------- ------,167691.28499994986,167689.75499994121,167418.217,167427.0999999717,167434.678,167701.253,,37,the
screen,html.Screen,2_1_1_1_38,2021-04-26T09:33:03.122Z,,,,,,,,,,,,,,,,,54,,,,,,,,,,,,,,292.88699996614014,,response,,,,100,,,,,,,Space,keypress(Space),,,,,,,,-- --- ---- --- ------ ----- ------- ---- -- --- ------- --<br>------- ---------- ------ -- ----- -- ----- -- ---- ------<br>--- ----- --- --- ------ -------- ----- --- ------ ----- --<br>----- ----- ---------- --- --- market ------ ---- -- ------<br>------- --- ------ ----- --- ---- ------- -- ---- --- --<br>------- ------,167994.86999993678,167994.13999996614,167684.662,167691.4949999191,167701.253,168001.161,,38,market
screen,html.Screen,2_1_1_1_39,2021-04-26T09:33:03.448Z,,,,,,,,,,,,,,,,,54,,,,,,,,,,,,,,318.833999910712,,response,,,,100,,,,,,,Space,keypress(Space),,,,,,,,-- --- ---- --- ------ ----- ------- ---- -- --- ------- --<br>------- ---------- ------ -- ----- -- ----- -- ---- ------<br>--- ----- --- --- ------ -------- ----- --- ------ ----- --<br>----- ----- ---------- --- --- ------ became ---- -- ------<br>------- --- ------ ----- --- ---- ------- -- ---- --- --<br>------- ------,168321.11000001896,168319.9949999107,167984.659,167995.0349999126,168001.161,168334.491,,39,became
screen,html.Screen,2_1_1_1_40,2021-04-26T09:33:03.793Z,,,,,,,,,,,,,,,,,54,,,,,,,,,,,,,,330.9089999398275,,response,,,,100,,,,,,,Space,keypress(Space),,,,,,,,-- --- ---- --- ------ ----- ------- ---- -- --- ------- --<br>------- ---------- ------ -- ----- -- ----- -- ---- ------<br>--- ----- --- --- ------ -------- ----- --- ------ ----- --<br>----- ----- ---------- --- --- ------ ------ wary -- ------<br>------- --- ------ ----- --- ---- ------- -- ---- --- --<br>------- ------,168666.46500001661,168665.39999993984,168318.289,168321.27999991644,168334.491,168695.543,,40,wary
screen,html.Screen,2_1_1_1_41,2021-04-26T09:33:04.185Z,,,,,,,,,,,,,,,,,54,,,,,,,,,,,,,,361.8919999660575,,response,,,,100,,,,,,,Space,keypress(Space),,,,,,,,-- --- ---- --- ------ ----- ------- ---- -- --- ------- --<br>------- ---------- ------ -- ----- -- ----- -- ---- ------<br>--- ----- --- --- ------ -------- ----- --- ------ ----- --<br>----- ----- ---------- --- --- ------ ------ ---- of ------<br>------- --- ------ ----- --- ---- ------- -- ---- --- --<br>------- ------,169058.33999998868,169057.43499996606,168651.06,168666.6349999141,168695.543,169067.408,,41,of
screen,html.Screen,2_1_1_1_42,2021-04-26T09:33:04.479Z,,,,,,,,,,,,,,,,,54,,,,,,,,,,,,,,284.02699996047886,,response,,,,100,,,,,,,Space,keypress(Space),,,,,,,,-- --- ---- --- ------ ----- ------- ---- -- --- ------- --<br>------- ---------- ------ -- ----- -- ----- -- ---- ------<br>--- ----- --- --- ------ -------- ----- --- ------ ----- --<br>----- ----- ---------- --- --- ------ ------ ---- -- French<br>------- --- ------ ----- --- ---- ------- -- ---- --- --<br>------- ------,169352.17500000726,169351.43499996047,169050.94,169058.63500002306,169067.408,169367.766,,42,French
screen,html.Screen,2_1_1_1_43,2021-04-26T09:33:04.797Z,,,,,,,,,,,,,,,,,54,,,,,,,,,,,,,,301.08899993804516,,response,,,,100,,,,,,,Space,keypress(Space),,,,,,,,-- --- ---- --- ------ ----- ------- ---- -- --- ------- --<br>------- ---------- ------ -- ----- -- ----- -- ---- ------<br>--- ----- --- --- ------ -------- ----- --- ------ ----- --<br>----- ----- ---------- --- --- ------ ------ ---- -- ------<br>credit. --- ------ ----- --- ---- ------- -- ---- --- --<br>------- ------,169669.92499993648,169668.85499993805,169350.8,169352.33499994501,169367.766,169684.055,,43,credit.
screen,html.Screen,2_1_1_1_44,2021-04-26T09:33:05.389Z,,,,,,,,,,,,,,,,,54,,,,,,,,,,,,,,577.4750000179629,,response,,,,100,,,,,,,Space,keypress(Space),,,,,,,,-- --- ---- --- ------ ----- ------- ---- -- --- ------- --<br>------- ---------- ------ -- ----- -- ----- -- ---- ------<br>--- ----- --- --- ------ -------- ----- --- ------ ----- --<br>----- ----- ---------- --- --- ------ ------ ---- -- ------<br>------- The ------ ----- --- ---- ------- -- ---- --- --<br>------- ------,170262.55500002299,170261.53000001796,169667.316,169670.0899999123,169684.055,170267.164,,44,The
screen,html.Screen,2_1_1_1_45,2021-04-26T09:33:05.669Z,,,,,,,,,,,,,,,,,54,,,,,,,,,,,,,,272.7759999296395,,response,,,,100,,,,,,,Space,keypress(Space),,,,,,,,-- --- ---- --- ------ ----- ------- ---- -- --- ------- --<br>------- ---------- ------ -- ----- -- ----- -- ---- ------<br>--- ----- --- --- ------ -------- ----- --- ------ ----- --<br>----- ----- ---------- --- --- ------ ------ ---- -- ------<br>------- --- French ----- --- ---- ------- -- ---- --- --<br>------- ------,170542.0049999375,170539.93999992963,170250.514,170262.7199999988,170267.164,170551.216,,45,French
screen,html.Screen,2_1_1_1_46,2021-04-26T09:33:06.034Z,,,,,,,,,,,,,,,,,54,,,,,,,,,,,,,,355.32399999632617,,response,,,,100,,,,,,,Space,keypress(Space),,,,,,,,-- --- ---- --- ------ ----- ------- ---- -- --- ------- --<br>------- ---------- ------ -- ----- -- ----- -- ---- ------<br>--- ----- --- --- ------ -------- ----- --- ------ ----- --<br>----- ----- ---------- --- --- ------ ------ ---- -- ------<br>------- --- ------ state --- ---- ------- -- ---- --- --<br>------- ------,170907.41500002332,170906.5399999963,170533.742,170542.23999998067,170551.216,170916.809,,46,state
screen,html.Screen,2_1_1_1_47,2021-04-26T09:33:06.461Z,,,,,,,,,,,,,,,,,54,,,,,,,,,,,,,,416.7310000214493,,response,,,,100,,,,,,,Space,keypress(Space),,,,,,,,-- --- ---- --- ------ ----- ------- ---- -- --- ------- --<br>------- ---------- ------ -- ----- -- ----- -- ---- ------<br>--- ----- --- --- ------ -------- ----- --- ------ ----- --<br>----- ----- ---------- --- --- ------ ------ ---- -- ------<br>------- --- ------ ----- was ---- ------- -- ---- --- --<br>------- ------,171334.20499996282,171333.54000002146,170900.15,170907.644999912,170916.809,171350.285,,47,was
screen,html.Screen,2_1_1_1_48,2021-04-26T09:33:06.860Z,,,,,,,,,,,,,,,,,54,,,,,,,,,,,,,,381.81500002290704,,response,,,,100,,,,,,,Space,keypress(Space),,,,,,,,-- --- ---- --- ------ ----- ------- ---- -- --- ------- --<br>------- ---------- ------ -- ----- -- ----- -- ---- ------<br>--- ----- --- --- ------ -------- ----- --- ------ ----- --<br>----- ----- ---------- --- --- ------ ------ ---- -- ------<br>------- --- ------ ----- --- left ------- -- ---- --- --<br>------- ------,171732.8199999174,171732.1000000229,171333.627,171334.36999993864,171350.285,171749.917,,48,left
screen,html.Screen,2_1_1_1_49,2021-04-26T09:33:07.232Z,,,,,,,,,,,,,,,,,54,,,,,,,,,,,,,,354.68299996238784,,response,,,,100,,,,,,,Space,keypress(Space),,,,,,,,-- --- ---- --- ------ ----- ------- ---- -- --- ------- --<br>------- ---------- ------ -- ----- -- ----- -- ---- ------<br>--- ----- --- --- ------ -------- ----- --- ------ ----- --<br>----- ----- ---------- --- --- ------ ------ ---- -- ------<br>------- --- ------ ----- --- ---- without -- ---- --- --<br>------- ------,172105.32999993302,172104.59999996237,171716.962,171732.97999997158,171749.917,172116.728,,49,without
screen,html.Screen,2_1_1_1_50,2021-04-26T09:33:07.574Z,,,,,,,,,,,,,,,,,54,,,,,,,,,,,,,,329.6319999435218,,response,,,,100,,,,,,,Space,keypress(Space),,,,,,,,-- --- ---- --- ------ ----- ------- ---- -- --- ------- --<br>------- ---------- ------ -- ----- -- ----- -- ---- ------<br>--- ----- --- --- ------ -------- ----- --- ------ ----- --<br>----- ----- ---------- --- --- ------ ------ ---- -- ------<br>------- --- ------ ----- --- ---- ------- an ---- --- --<br>------- ------,172447.38999998663,172446.35999994352,172099.892,172105.49500002526,172116.728,172449.573,,50,an
screen,html.Screen,2_1_1_1_51,2021-04-26T09:33:08.053Z,,,,,,,,,,,,,,,,,54,,,,,,,,,,,,,,475.7420000004058,,response,,,,100,,,,,,,Space,keypress(Space),,,,,,,,-- --- ---- --- ------ ----- ------- ---- -- --- ------- --<br>------- ---------- ------ -- ----- -- ----- -- ---- ------<br>--- ----- --- --- ------ -------- ----- --- ------ ----- --<br>----- ----- ---------- --- --- ------ ------ ---- -- ------<br>------- --- ------ ----- --- ---- ------- -- easy --- --<br>------- ------,172926.51999997906,172925.3150000004,172433.099,172447.73000001442,172449.573,172932.745,,51,easy
screen,html.Screen,2_1_1_1_52,2021-04-26T09:33:08.435Z,,,,,,,,,,,,,,,,,54,,,,,,,,,,,,,,374.25499991339166,,response,,,,100,,,,,,,Space,keypress(Space),,,,,,,,-- --- ---- --- ------ ----- ------- ---- -- --- ------- --<br>------- ---------- ------ -- ----- -- ----- -- ---- ------<br>--- ----- --- --- ------ -------- ----- --- ------ ----- --<br>----- ----- ---------- --- --- ------ ------ ---- -- ------<br>------- --- ------ ----- --- ---- ------- -- ---- way --<br>------- ------,173308.1649999367,173306.9999999134,172916.486,172926.6849999549,172932.745,173315.951,,52,way
screen,html.Screen,2_1_1_1_53,2021-04-26T09:33:08.751Z,,,,,,,,,,,,,,,,,54,,,,,,,,,,,,,,306.65399992407765,,response,,,,100,,,,,,,Space,keypress(Space),,,,,,,,-- --- ---- --- ------ ----- ------- ---- -- --- ------- --<br>------- ---------- ------ -- ----- -- ----- -- ---- ------<br>--- ----- --- --- ------ -------- ----- --- ------ ----- --<br>----- ----- ---------- --- --- ------ ------ ---- -- ------<br>------- --- ------ ----- --- ---- ------- -- ---- --- of<br>------- ------,173623.6299999291,173622.60499992408,173299.477,173308.32499999087,173315.951,173632.527,,53,of
screen,html.Screen,2_1_1_1_54,2021-04-26T09:33:09.241Z,,,,,,,,,,,,,,,,,54,,,,,,,,,,,,,,480.74299997254275,,response,,,,100,,,,,,,Space,keypress(Space),,,,,,,,-- --- ---- --- ------ ----- ------- ---- -- --- ------- --<br>------- ---------- ------ -- ----- -- ----- -- ---- ------<br>--- ----- --- --- ------ -------- ----- --- ------ ----- --<br>----- ----- ---------- --- --- ------ ------ ---- -- ------<br>------- --- ------ ----- --- ---- ------- -- ---- --- --<br>raising ------,174113.9499999117,174113.26999997254,173615.947,173623.78999998327,173632.527,174115.69,,54,raising
screen,html.Screen,2_1_1_1_55,2021-04-26T09:33:09.714Z,,,,,,,,,,,,,,,,,54,,,,,,,,,,,,,,470.30499997216975,,response,,,,100,,,,,,,Space,keypress(Space),,,,,,,,-- --- ---- --- ------ ----- ------- ---- -- --- ------- --<br>------- ---------- ------ -- ----- -- ----- -- ---- ------<br>--- ----- --- --- ------ -------- ----- --- ------ ----- --<br>----- ----- ---------- --- --- ------ ------ ---- -- ------<br>------- --- ------ ----- --- ---- ------- -- ---- --- --<br>------- money.,174586.99999994133,174585.99499997217,174099.528,174114.11500000395,174115.69,174598.781,,55,money.
Item 100,flow.Loop,2_1_1_1,2021-04-26T09:33:09.714Z,,,,,,,,,,,,,,,,,,,,,,,,,,,,,,,25244.99599997216,,completion,,,,,A,,,,,,,,,,,silence,,,,,174587.25999994203,174585.99499997217,149324.807,149325.71999996435,149340.999,174598.781,,,
Question 1,html.Screen,2_1_1_2,2021-04-26T09:33:12.066Z,,,,,,,,,,,,,,,,,,,,,,,,,,,,true,TRUE,,2338.5990000175952,,response,,,,100,A,,,,,,TRUE,click #choice-1,,,,silence,,,,,176938.70499997865,176937.38000001758,174582.362,174587.37999992445,174598.781,176948.036,,,
Question 2,html.Screen,2_1_1_3,2021-04-26T09:33:14.489Z,,,,,,,,,,,,,,,,,,,,,,,,,,,,true,FALSE,,2412.818999977171,,response,,,,100,A,,,,,,FALSE,click #choice-2,,,,silence,,,,,179362.05499991775,179360.85499997716,176931.485,176938.8649999164,176948.036,179363.826,,,
Item 100,flow.Sequence,2_1_1,2021-04-26T09:33:14.489Z,,,,,,,,,,,,,,,,,,,,,,,,,,,,,,,40016.419999977166,,completion,,,,,,,,,,,,,,,,,,,,,179362.28999996092,179360.85499997716,139327.972,139335.40500001982,139344.435,179363.826,,,
End of Practice,html.Page,2_1_2,2021-04-26T09:33:18.297Z,,,,,,,,,,,,,,,,,,,,,,,,,,,,,,,3807.1439999773866,,form submission,,,,,,,,,,,,,,,,,,,,,183171.43999994732,183170.9699999774,179347.294,179362.4149999814,179363.826,183179.234,,,
Practice,flow.Sequence,2_1,2021-04-26T09:33:18.299Z,,,,,,,,,,,,,,,,,,,,,,,,,,,,,,,85911.5589999774,,completion,,,,,,,,,,,,,,,,,,,,,183172.70999995526,183170.9699999774,97242.752,97256.22999994084,97259.411,183179.234,,,
Trap_instruction,html.Page,2_2_0,2021-04-26T09:33:22.284Z,,,,,,,,,,,,,,,,,,,,,,,,,,,,,,,3978.130999991845,,form submission,,,,,,,,,,,,,,,,,,,,,187157.79500000644,187157.36499999184,183162.581,183172.87999996915,183179.234,187177.875,,,
trap_trial,html.Screen,2_2_1,2021-04-26T09:33:25.643Z,,,,,,,,,,,,,,,,,,,,,,,,,,,,true,1,,3337.890000018291,,response,,,,,,,,,,,1,click #choice-1,,,,,,,,,190516.9599999208,190515.7650000183,187144.592,187157.9549999442,187177.875,190526.635,,,
end of trap trial,html.Page,2_2_2,2021-04-26T09:33:27.776Z,,,,,,,,,,,,,,,,,,,,,,,,,,,,,,,2122.9899999618065,,form submission,,,,,,,,,,,,,,,,,,,,,192650.04999993835,192649.62499996182,190510.452,190517.14000001084,190526.635,192659.154,,,
Trap 1,flow.Sequence,2_2,2021-04-26T09:33:27.776Z,,,,,,,,,,,,,,,,,,,,,,,,,,,,,,,9470.390999961819,,completion,,,,,,,,,,,,,,,,,,,,,192650.27999994345,192649.62499996182,183162.581,183172.83499997575,183179.234,192659.154,,,
Standby,html.Page,2_3_0,2021-04-26T09:33:35.766Z,,,,,,,,,,,,,,,,,,,,,,,,,,,,,,,7997.2729999999865,,timeout,,,,,,,,,,,,,,,,,,,,,200640.44999994803,200639.729,192642.635,192650.43499995954,192659.154,200656.427,,,
Holding screen,html.Screen,2_3_1_0_0,2021-04-26T09:33:42.764Z,,,,,,,,,,,,,,,,,,,,,,,,,,,,,,,6997.535999999993,,timeout,,,,,,,,,,,,,,,,,,,,,207638.41999997385,207637.373,200639.729,200640.699999989,200656.427,207653.963,,,
screen,html.Screen,2_3_1_0_1_0,2021-04-26T09:33:43.504Z,,,,,,,,,,,,,,,,,2,,,,,,,,,,,,,,722.4920000196435,,response,,,,1,A,,,,,,Space,keypress(Space),,,,silence,,,,Two ---- ------ --- ------- ---------- ------- ----------<br>--- --------- --- ----------- ------- ----- ------- ---<br>--------- ---- -- --- ---- -- --------- -- ---- -------<br>-- --------- ------ --- ----- ------ ---- --- --------- --<br>------ - ---- -- --- ----------- ------- ---- ----- -----<br>--- -------- - ------ ---- -- ----- ---- --- --- -----------<br>-- -------,208377.8099999763,208376.45500001963,207637.373,207638.65999993868,207653.963,208387.034,,0,Two
screen,html.Screen,2_3_1_0_1_1,2021-04-26T09:33:43.955Z,,,,,,,,,,,,,,,,,2,,,,,,,,,,,,,,441.0010000131733,,response,,,,1,A,,,,,,Space,keypress(Space),,,,silence,,,,--- days ------ --- ------- ---------- ------- ----------<br>--- --------- --- ----------- ------- ----- ------- ---<br>--------- ---- -- --- ---- -- --------- -- ---- -------<br>-- --------- ------ --- ----- ------ ---- --- --------- --<br>------ - ---- -- --- ----------- ------- ---- ----- -----<br>--- -------- - ------ ---- -- ----- ---- --- --- -----------<br>-- -------,208829.03999998234,208828.0350000132,208370.581,208378.00000002608,208387.034,208837.034,,1,days
screen,html.Screen,2_3_1_0_1_2,2021-04-26T09:33:44.408Z,,,,,,,,,,,,,,,,,2,,,,,,,,,,,,,,444.1260000131733,,response,,,,1,A,,,,,,Space,keypress(Space),,,,silence,,,,"--- ---- later, --- ------- ---------- ------- ----------<br>--- --------- --- ----------- ------- ----- ------- ---<br>--------- ---- -- --- ---- -- --------- -- ---- -------<br>-- --------- ------ --- ----- ------ ---- --- --------- --<br>------ - ---- -- --- ----------- ------- ---- ----- -----<br>--- -------- - ------ ---- -- ----- ---- --- --- -----------<br>-- -------",209281.8650000263,209281.1600000132,208820.327,208829.19499999844,208837.034,209286.705,,2,"later,"
screen,html.Screen,2_3_1_0_1_3,2021-04-26T09:33:44.815Z,,,,,,,,,,,,,,,,,2,,,,,,,,,,,,,,401.36999995456426,,response,,,,1,A,,,,,,Space,keypress(Space),,,,silence,,,,--- ---- ------ the ------- ---------- ------- ----------<br>--- --------- --- ----------- ------- ----- ------- ---<br>--------- ---- -- --- ---- -- --------- -- ---- -------<br>-- --------- ------ --- ----- ------ ---- --- --------- --<br>------ - ---- -- --- ----------- ------- ---- ----- -----<br>--- -------- - ------ ---- -- ----- ---- --- --- -----------<br>-- -------,209689.04500000644,209688.07499995455,209270.581,209282.03999996185,209286.705,209703.322,,3,the
screen,html.Screen,2_3_1_0_1_4,2021-04-26T09:33:45.220Z,,,,,,,,,,,,,,,,,2,,,,,,,,,,,,,,388.8279999240185,,response,,,,1,A,,,,,,Space,keypress(Space),,,,silence,,,,--- ---- ------ --- British ---------- ------- ----------<br>--- --------- --- ----------- ------- ----- ------- ---<br>--------- ---- -- --- ---- -- --------- -- ---- -------<br>-- --------- ------ --- ----- ------ ---- --- --------- --<br>------ - ---- -- --- ----------- ------- ---- ----- -----<br>--- -------- - ------ ---- -- ----- ---- --- --- -----------<br>-- -------,210094.04499991797,210092.149999924,209686.758,209689.2049999442,209703.322,210103.064,,4,British
screen,html.Screen,2_3_1_0_1_5,2021-04-26T09:33:45.554Z,,,,,,,,,,,,,,,,,2,,,,,,,,,,,,,,324.71599991084076,,response,,,,1,A,,,,,,Space,keypress(Space),,,,silence,,,,--- ---- ------ --- ------- astronomer ------- ----------<br>--- --------- --- ----------- ------- ----- ------- ---<br>--------- ---- -- --- ---- -- --------- -- ---- -------<br>-- --------- ------ --- ----- ------ ---- --- --------- --<br>------ - ---- -- --- ----------- ------- ---- ----- -----<br>--- -------- - ------ ---- -- ----- ---- --- --- -----------<br>-- -------,210428.47499996424,210427.77999991085,210086.613,210094.225000008,210103.064,210436.303,,5,astronomer
screen,html.Screen,2_3_1_0_1_6,2021-04-26T09:33:46.104Z,,,,,,,,,,,,,,,,,2,,,,,,,,,,,,,,540.6619999216055,,response,,,,1,A,,,,,,Space,keypress(Space),,,,silence,,,,--- ---- ------ --- ------- ---------- Richard ----------<br>--- --------- --- ----------- ------- ----- ------- ---<br>--------- ---- -- --- ---- -- --------- -- ---- -------<br>-- --------- ------ --- ----- ------ ---- --- --------- --<br>------ - ---- -- --- ----------- ------- ---- ----- -----<br>--- -------- - ------ ---- -- ----- ---- --- --- -----------<br>-- -------,210977.89999993984,210976.96499992162,210419.831,210428.63999994006,210436.303,210986.051,,6,Richard
screen,html.Screen,2_3_1_0_1_7,2021-04-26T09:33:46.654Z,,,,,,,,,,,,,,,,,2,,,,,,,,,,,,,,541.5139999966777,,response,,,,1,A,,,,,,Space,keypress(Space),,,,silence,,,,--- ---- ------ --- ------- ---------- ------- Carrington<br>--- --------- --- ----------- ------- ----- ------- ---<br>--------- ---- -- --- ---- -- --------- -- ---- -------<br>-- --------- ------ --- ----- ------ ---- --- --------- --<br>------ - ---- -- --- ----------- ------- ---- ----- -----<br>--- -------- - ------ ---- -- ----- ---- --- --- -----------<br>-- -------,211528.3150000032,211527.56499999668,210969.706,210978.059999994,210986.051,211535.931,,7,Carrington
screen,html.Screen,2_3_1_0_1_8,2021-04-26T09:33:47.051Z,,,,,,,,,,,,,,,,,2,,,,,,,,,,,,,,388.31899992362014,,response,,,,1,A,,,,,,Space,keypress(Space),,,,silence,,,,--- ---- ------ --- ------- ---------- ------- ----------<br>was --------- --- ----------- ------- ----- ------- ---<br>--------- ---- -- --- ---- -- --------- -- ---- -------<br>-- --------- ------ --- ----- ------ ---- --- --------- --<br>------ - ---- -- --- ----------- ------- ---- ----- -----<br>--- -------- - ------ ---- -- ----- ---- --- --- -----------<br>-- -------,211925.26499996893,211924.24999992363,211519.491,211528.47499994095,211535.931,211935.743,,8,was
screen,html.Screen,2_3_1_0_1_9,2021-04-26T09:33:47.476Z,,,,,,,,,,,,,,,,,2,,,,,,,,,,,,,,412.7419999658887,,response,,,,1,A,,,,,,Space,keypress(Space),,,,silence,,,,--- ---- ------ --- ------- ---------- ------- ----------<br>--- observing --- ----------- ------- ----- ------- ---<br>--------- ---- -- --- ---- -- --------- -- ---- -------<br>-- --------- ------ --- ----- ------ ---- --- --------- --<br>------ - ---- -- --- ----------- ------- ---- ----- -----<br>--- -------- - ------ ---- -- ----- ---- --- --- -----------<br>-- -------,212349.9399999855,212348.48499996588,211919.264,211925.4250000231,211935.743,212352.291,,9,observing
screen,html.Screen,2_3_1_0_1_10,2021-04-26T09:33:47.935Z,,,,,,,,,,,,,,,,,2,,,,,,,,,,,,,,455.8390000194486,,response,,,,1,A,,,,,,Space,keypress(Space),,,,silence,,,,--- ---- ------ --- ------- ---------- ------- ----------<br>--- --------- the ----------- ------- ----- ------- ---<br>--------- ---- -- --- ---- -- --------- -- ---- -------<br>-- --------- ------ --- ----- ------ ---- --- --------- --<br>------ - ---- -- --- ----------- ------- ---- ----- -----<br>--- -------- - ------ ---- -- ----- ---- --- --- -----------<br>-- -------,212809.2300000135,212808.13000001945,212335.794,212350.09999992326,212352.291,212818.869,,10,the
screen,html.Screen,2_3_1_0_1_11,2021-04-26T09:33:48.419Z,,,,,,,,,,,,,,,,,2,,,,,,,,,,,,,,471.9809999903082,,response,,,,1,A,,,,,,Space,keypress(Space),,,,silence,,,,--- ---- ------ --- ------- ---------- ------- ----------<br>--- --------- --- interesting ------- ----- ------- ---<br>--------- ---- -- --- ---- -- --------- -- ---- -------<br>-- --------- ------ --- ----- ------ ---- --- --------- --<br>------ - ---- -- --- ----------- ------- ---- ----- -----<br>--- -------- - ------ ---- -- ----- ---- --- --- -----------<br>-- -------,213293.50499995053,213290.8499999903,212802.568,212809.3949999893,212818.869,213302.113,,11,interesting
screen,html.Screen,2_3_1_0_1_12,2021-04-26T09:33:48.865Z,,,,,,,,,,,,,,,,,2,,,,,,,,,,,,,,434.97199991333764,,response,,,,1,A,,,,,,Space,keypress(Space),,,,silence,,,,--- ---- ------ --- ------- ---------- ------- ----------<br>--- --------- --- ----------- sunspot ----- ------- ---<br>--------- ---- -- --- ---- -- --------- -- ---- -------<br>-- --------- ------ --- ----- ------ ---- --- --------- --<br>------ - ---- -- --- ----------- ------- ---- ----- -----<br>--- -------- - ------ ---- -- ----- ---- --- --- -----------<br>-- -------,213738.9049999183,213737.08499991335,213285.521,213293.71999995783,213302.113,213751.902,,12,sunspot
screen,html.Screen,2_3_1_0_1_13,2021-04-26T09:33:49.312Z,,,,,,,,,,,,,,,,,2,,,,,,,,,,,,,,432.18299995712005,,response,,,,1,A,,,,,,Space,keypress(Space),,,,silence,,,,--- ---- ------ --- ------- ---------- ------- ----------<br>--- --------- --- ----------- ------- group ------- ---<br>--------- ---- -- --- ---- -- --------- -- ---- -------<br>-- --------- ------ --- ----- ------ ---- --- --------- --<br>------ - ---- -- --- ----------- ------- ---- ----- -----<br>--- -------- - ------ ---- -- ----- ---- --- --- -----------<br>-- -------,214186.19999999646,214184.08499995712,213735.264,213739.1499999212,213751.902,214201.663,,13,group
screen,html.Screen,2_3_1_0_1_14,2021-04-26T09:33:49.706Z,,,,,,,,,,,,,,,,,2,,,,,,,,,,,,,,377.5819999134983,,response,,,,1,A,,,,,,Space,keypress(Space),,,,silence,,,,--- ---- ------ --- ------- ---------- ------- ----------<br>--- --------- --- ----------- ------- ----- through ---<br>--------- ---- -- --- ---- -- --------- -- ---- -------<br>-- --------- ------ --- ----- ------ ---- --- --------- --<br>------ - ---- -- --- ----------- ------- ---- ----- -----<br>--- -------- - ------ ---- -- ----- ---- --- --- -----------<br>-- -------,214580.2899999544,214579.2449999135,214185.132,214186.37000001036,214201.663,214584.866,,14,through
screen,html.Screen,2_3_1_0_1_15,2021-04-26T09:33:49.996Z,,,,,,,,,,,,,,,,,2,,,,,,,,,,,,,,284.70900001880364,,response,,,,1,A,,,,,,Space,keypress(Space),,,,silence,,,,--- ---- ------ --- ------- ---------- ------- ----------<br>--- --------- --- ----------- ------- ----- ------- his<br>--------- ---- -- --- ---- -- --------- -- ---- -------<br>-- --------- ------ --- ----- ------ ---- --- --------- --<br>------ - ---- -- --- ----------- ------- ---- ----- -----<br>--- -------- - ------ ---- -- ----- ---- --- --- -----------<br>-- -------,214870.3599999426,214869.5750000188,214568.301,214580.45000000857,214584.866,214885.153,,15,his
screen,html.Screen,2_3_1_0_1_16,2021-04-26T09:33:50.403Z,,,,,,,,,,,,,,,,,2,,,,,,,,,,,,,,390.8269999184995,,response,,,,1,A,,,,,,Space,keypress(Space),,,,silence,,,,--- ---- ------ --- ------- ---------- ------- ----------<br>--- --------- --- ----------- ------- ----- ------- ---<br>telescope ---- -- --- ---- -- --------- -- ---- -------<br>-- --------- ------ --- ----- ------ ---- --- --------- --<br>------ - ---- -- --- ----------- ------- ---- ----- -----<br>--- -------- - ------ ---- -- ----- ---- --- --- -----------<br>-- -------,215277.054999955,215275.9799999185,214868.267,214870.52499991842,214885.153,215284.698,,16,telescope
screen,html.Screen,2_3_1_0_1_17,2021-04-26T09:33:50.799Z,,,,,,,,,,,,,,,,,2,,,,,,,,,,,,,,387.8919999728387,,response,,,,1,A,,,,,,Space,keypress(Space),,,,silence,,,,--- ---- ------ --- ------- ---------- ------- ----------<br>--- --------- --- ----------- ------- ----- ------- ---<br>--------- when -- --- ---- -- --------- -- ---- -------<br>-- --------- ------ --- ----- ------ ---- --- --------- --<br>------ - ---- -- --- ----------- ------- ---- ----- -----<br>--- -------- - ------ ---- -- ----- ---- --- --- -----------<br>-- -------,215673.62000001594,215672.58999997284,215268.131,215277.21999993082,215284.698,215684.695,,17,when
screen,html.Screen,2_3_1_0_1_18,2021-04-26T09:33:51.135Z,,,,,,,,,,,,,,,,,2,,,,,,,,,,,,,,323.6949999735807,,response,,,,1,A,,,,,,Space,keypress(Space),,,,silence,,,,--- ---- ------ --- ------- ---------- ------- ----------<br>--- --------- --- ----------- ------- ----- ------- ---<br>--------- ---- he --- ---- -- --------- -- ---- -------<br>-- --------- ------ --- ----- ------ ---- --- --------- --<br>------ - ---- -- --- ----------- ------- ---- ----- -----<br>--- -------- - ------ ---- -- ----- ---- --- --- -----------<br>-- -------,216009.4800000079,216008.3899999736,215667.993,215673.7799999537,215684.695,216017.698,,18,he
screen,html.Screen,2_3_1_0_1_19,2021-04-26T09:33:51.492Z,,,,,,,,,,,,,,,,,2,,,,,,,,,,,,,,347.42199997309945,,response,,,,1,A,,,,,,Space,keypress(Space),,,,silence,,,,--- ---- ------ --- ------- ---------- ------- ----------<br>--- --------- --- ----------- ------- ----- ------- ---<br>--------- ---- -- saw ---- -- --------- -- ---- -------<br>-- --------- ------ --- ----- ------ ---- --- --------- --<br>------ - ---- -- --- ----------- ------- ---- ----- -----<br>--- -------- - ------ ---- -- ----- ---- --- --- -----------<br>-- -------,216366.14499997813,216365.1199999731,216001.178,216009.64499998372,216017.698,216384.817,,19,saw
screen,html.Screen,2_3_1_0_1_20,2021-04-26T09:33:51.884Z,,,,,,,,,,,,,,,,,2,,,,,,,,,,,,,,372.5680000044231,,response,,,,1,A,,,,,,Space,keypress(Space),,,,silence,,,,--- ---- ------ --- ------- ---------- ------- ----------<br>--- --------- --- ----------- ------- ----- ------- ---<br>--------- ---- -- --- what -- --------- -- ---- -------<br>-- --------- ------ --- ----- ------ ---- --- --------- --<br>------ - ---- -- --- ----------- ------- ---- ----- -----<br>--- -------- - ------ ---- -- ----- ---- --- --- -----------<br>-- -------,216758.434999967,216757.38500000443,216351.074,216366.30999995396,216384.817,216767.437,,20,what
screen,html.Screen,2_3_1_0_1_21,2021-04-26T09:33:52.156Z,,,,,,,,,,,,,,,,,2,,,,,,,,,,,,,,262.0329999503738,,response,,,,1,A,,,,,,Space,keypress(Space),,,,silence,,,,--- ---- ------ --- ------- ---------- ------- ----------<br>--- --------- --- ----------- ------- ----- ------- ---<br>--------- ---- -- --- ---- he --------- -- ---- -------<br>-- --------- ------ --- ----- ------ ---- --- --------- --<br>------ - ---- -- --- ----------- ------- ---- ----- -----<br>--- -------- - ------ ---- -- ----- ---- --- --- -----------<br>-- -------,217030.55000002496,217029.46999995038,216750.944,216758.59500002116,216767.437,217034.018,,21,he
screen,html.Screen,2_3_1_0_1_22,2021-04-26T09:33:52.503Z,,,,,,,,,,,,,,,,,2,,,,,,,,,,,,,,342.0769999559561,,response,,,,1,A,,,,,,Space,keypress(Space),,,,silence,,,,--- ---- ------ --- ------- ---------- ------- ----------<br>--- --------- --- ----------- ------- ----- ------- ---<br>--------- ---- -- --- ---- -- described -- ---- -------<br>-- --------- ------ --- ----- ------ ---- --- --------- --<br>------ - ---- -- --- ----------- ------- ---- ----- -----<br>--- -------- - ------ ---- -- ----- ---- --- --- -----------<br>-- -------,217377.16999999247,217376.09499995597,217017.482,217030.71500000078,217034.018,217383.889,,22,described
screen,html.Screen,2_3_1_0_1_23,2021-04-26T09:33:52.821Z,,,,,,,,,,,,,,,,,2,,,,,,,,,,,,,,309.9909999188676,,response,,,,1,A,,,,,,Space,keypress(Space),,,,silence,,,,--- ---- ------ --- ------- ---------- ------- ----------<br>--- --------- --- ----------- ------- ----- ------- ---<br>--------- ---- -- --- ---- -- --------- as ---- -------<br>-- --------- ------ --- ----- ------ ---- --- --------- --<br>------ - ---- -- --- ----------- ------- ---- ----- -----<br>--- -------- - ------ ---- -- ----- ---- --- --- -----------<br>-- -------,217695.04000002053,217693.87999991886,217367.403,217379.8399999505,217383.889,217700.838,,23,as
screen,html.Screen,2_3_1_0_1_24,2021-04-26T09:33:53.133Z,,,,,,,,,,,,,,,,,2,,,,,,,,,,,,,,305.55699991667643,,response,,,,1,A,,,,,,Space,keypress(Space),,,,silence,,,,"--- ---- ------ --- ------- ---------- ------- ----------<br>--- --------- --- ----------- ------- ----- ------- ---<br>--------- ---- -- --- ---- -- --------- -- ""two -------<br>-- --------- ------ --- ----- ------ ---- --- --------- --<br>------ - ---- -- --- ----------- ------- ---- ----- -----<br>--- -------- - ------ ---- -- ----- ---- --- --- -----------<br>-- -------",218007.2199999122,218006.39499991667,217683.928,217695.18499996047,217700.838,218017.013,,24,"""two"
screen,html.Screen,2_3_1_0_1_25,2021-04-26T09:33:53.451Z,,,,,,,,,,,,,,,,,2,,,,,,,,,,,,,,307.0320000157517,,response,,,,1,A,,,,,,Space,keypress(Space),,,,silence,,,,--- ---- ------ --- ------- ---------- ------- ----------<br>--- --------- --- ----------- ------- ----- ------- ---<br>--------- ---- -- --- ---- -- --------- -- ---- patches<br>-- --------- ------ --- ----- ------ ---- --- --------- --<br>------ - ---- -- --- ----------- ------- ---- ----- -----<br>--- -------- - ------ ---- -- ----- ---- --- --- -----------<br>-- -------,218324.82999993954,218324.04500001576,218000.505,218007.36499996856,218017.013,218333.557,,25,patches
screen,html.Screen,2_3_1_0_1_26,2021-04-26T09:33:53.819Z,,,,,,,,,,,,,,,,,2,,,,,,,,,,,,,,358.93799996658345,,response,,,,1,A,,,,,,Space,keypress(Space),,,,silence,,,,--- ---- ------ --- ------- ---------- ------- ----------<br>--- --------- --- ----------- ------- ----- ------- ---<br>--------- ---- -- --- ---- -- --------- -- ---- -------<br>of --------- ------ --- ----- ------ ---- --- --------- --<br>------ - ---- -- --- ----------- ------- ---- ----- -----<br>--- -------- - ------ ---- -- ----- ---- --- --- -----------<br>-- -------,218693.49999993574,218692.49499996658,218317.061,218324.9749999959,218333.557,218700.13,,26,of
screen,html.Screen,2_3_1_0_1_27,2021-04-26T09:33:54.165Z,,,,,,,,,,,,,,,,,2,,,,,,,,,,,,,,338.2849999590544,,response,,,,1,A,,,,,,Space,keypress(Space),,,,silence,,,,--- ---- ------ --- ------- ---------- ------- ----------<br>--- --------- --- ----------- ------- ----- ------- ---<br>--------- ---- -- --- ---- -- --------- -- ---- -------<br>-- intensely ------ --- ----- ------ ---- --- --------- --<br>------ - ---- -- --- ----------- ------- ---- ----- -----<br>--- -------- - ------ ---- -- ----- ---- --- --- -----------<br>-- -------,219039.43499992602,219038.41499995906,218683.801,218693.63999995403,218700.13,219049.924,,27,intensely
screen,html.Screen,2_3_1_0_1_28,2021-04-26T09:33:54.464Z,,,,,,,,,,,,,,,,,2,,,,,,,,,,,,,,287.58099994494114,,response,,,,1,A,,,,,,Space,keypress(Space),,,,silence,,,,--- ---- ------ --- ------- ---------- ------- ----------<br>--- --------- --- ----------- ------- ----- ------- ---<br>--------- ---- -- --- ---- -- --------- -- ---- -------<br>-- --------- bright --- ----- ------ ---- --- --------- --<br>------ - ---- -- --- ----------- ------- ---- ----- -----<br>--- -------- - ------ ---- -- ----- ---- --- --- -----------<br>-- -------,219338.5400000261,219337.50499994494,219033.471,219039.58500002045,219049.924,219349.88,,28,bright
screen,html.Screen,2_3_1_0_1_29,2021-04-26T09:33:54.748Z,,,,,,,,,,,,,,,,,2,,,,,,,,,,,,,,271.3499999315245,,response,,,,1,A,,,,,,Space,keypress(Space),,,,silence,,,,--- ---- ------ --- ------- ---------- ------- ----------<br>--- --------- --- ----------- ------- ----- ------- ---<br>--------- ---- -- --- ---- -- --------- -- ---- -------<br>-- --------- ------ and ----- ------ ---- --- --------- --<br>------ - ---- -- --- ----------- ------- ---- ----- -----<br>--- -------- - ------ ---- -- ----- ---- --- --- -----------<br>-- -------,219621.96499994025,219621.22999993153,219333.349,219338.68499996606,219349.88,219633.135,,29,and
screen,html.Screen,2_3_1_0_1_30,2021-04-26T09:33:55.058Z,,,,,,,,,,,,,,,,,2,,,,,,,,,,,,,,298.26500000129454,,response,,,,1,A,,,,,,Space,keypress(Space),,,,silence,,,,--- ---- ------ --- ------- ---------- ------- ----------<br>--- --------- --- ----------- ------- ----- ------- ---<br>--------- ---- -- --- ---- -- --------- -- ---- -------<br>-- --------- ------ --- white ------ ---- --- --------- --<br>------ - ---- -- --- ----------- ------- ---- ----- -----<br>--- -------- - ------ ---- -- ----- ---- --- --- -----------<br>-- -------,219932.15000000782,219931.4000000013,219616.6,219622.11499991827,219633.135,219954.536,,30,white
screen,html.Screen,2_3_1_0_1_31,2021-04-26T09:33:55.328Z,,,,,,,,,,,,,,,,,2,,,,,,,,,,,,,,246.8790000177396,,response,,,,1,A,,,,,,Space,keypress(Space),,,,silence,,,,"--- ---- ------ --- ------- ---------- ------- ----------<br>--- --------- --- ----------- ------- ----- ------- ---<br>--------- ---- -- --- ---- -- --------- -- ---- -------<br>-- --------- ------ --- ----- light"" ---- --- --------- --<br>------ - ---- -- --- ----------- ------- ---- ----- -----<br>--- -------- - ------ ---- -- ----- ---- --- --- -----------<br>-- -------",220202.18999998178,220201.41500001773,219916.502,219932.47999995947,219954.536,220216.306,,31,"light"""
screen,html.Screen,2_3_1_0_1_32,2021-04-26T09:33:55.691Z,,,,,,,,,,,,,,,,,2,,,,,,,,,,,,,,347.543999918591,,response,,,,1,A,,,,,,Space,keypress(Space),,,,silence,,,,--- ---- ------ --- ------- ---------- ------- ----------<br>--- --------- --- ----------- ------- ----- ------- ---<br>--------- ---- -- --- ---- -- --------- -- ---- -------<br>-- --------- ------ --- ----- ------ over --- --------- --<br>------ - ---- -- --- ----------- ------- ---- ----- -----<br>--- -------- - ------ ---- -- ----- ---- --- --- -----------<br>-- -------,220565.14500000048,220563.8499999186,220199.726,220202.3399999598,220216.306,220587.277,,32,over
screen,html.Screen,2_3_1_0_1_33,2021-04-26T09:33:55.945Z,,,,,,,,,,,,,,,,,2,,,,,,,,,,,,,,231.15800002287142,,response,,,,1,A,,,,,,Space,keypress(Space),,,,silence,,,,--- ---- ------ --- ------- ---------- ------- ----------<br>--- --------- --- ----------- ------- ----- ------- ---<br>--------- ---- -- --- ---- -- --------- -- ---- -------<br>-- --------- ------ --- ----- ------ ---- the --------- --<br>------ - ---- -- --- ----------- ------- ---- ----- -----<br>--- -------- - ------ ---- -- ----- ---- --- --- -----------<br>-- -------,220819.43999999203,220818.43500002287,220549.604,220565.28999994043,220587.277,220832.771,,33,the
screen,html.Screen,2_3_1_0_1_34,2021-04-26T09:33:56.200Z,,,,,,,,,,,,,,,,,2,,,,,,,,,,,,,,240.25399993237806,,response,,,,1,A,,,,,,Space,keypress(Space),,,,silence,,,,--- ---- ------ --- ------- ---------- ------- ----------<br>--- --------- --- ----------- ------- ----- ------- ---<br>--------- ---- -- --- ---- -- --------- -- ---- -------<br>-- --------- ------ --- ----- ------ ---- --- sunspots. --<br>------ - ---- -- --- ----------- ------- ---- ----- -----<br>--- -------- - ------ ---- -- ----- ---- --- --- -----------<br>-- -------,221073.81500001065,221073.0249999324,220816.139,220819.58499993198,220832.771,221082.812,,34,sunspots.
screen,html.Screen,2_3_1_0_1_35,2021-04-26T09:33:56.724Z,,,,,,,,,,,,,,,,,2,,,,,,,,,,,,,,513.8379999631143,,response,,,,1,A,,,,,,Space,keypress(Space),,,,silence,,,,--- ---- ------ --- ------- ---------- ------- ----------<br>--- --------- --- ----------- ------- ----- ------- ---<br>--------- ---- -- --- ---- -- --------- -- ---- -------<br>-- --------- ------ --- ----- ------ ---- --- --------- He<br>------ - ---- -- --- ----------- ------- ---- ----- -----<br>--- -------- - ------ ---- -- ----- ---- --- --- -----------<br>-- -------,221597.69500000402,221596.64999996312,221066.047,221073.95499991253,221082.812,221624.228,,35,He
screen,html.Screen,2_3_1_0_1_36,2021-04-26T09:33:57.058Z,,,,,,,,,,,,,,,,,2,,,,,,,,,,,,,,306.5119999815943,,response,,,,1,A,,,,,,Space,keypress(Space),,,,silence,,,,--- ---- ------ --- ------- ---------- ------- ----------<br>--- --------- --- ----------- ------- ----- ------- ---<br>--------- ---- -- --- ---- -- --------- -- ---- -------<br>-- --------- ------ --- ----- ------ ---- --- --------- --<br>jotted - ---- -- --- ----------- ------- ---- ----- -----<br>--- -------- - ------ ---- -- ----- ---- --- --- -----------<br>-- -------,221931.77499994636,221930.7399999816,221582.632,221597.8350000223,221624.228,221965.66,,36,jotted
