sender,sender_type,sender_id,timestamp,meta,,Blues,Classical,Country,Dance,Electronic,Folk,Gospel,Hip-Hop,Jazz,Latin,Musical/Film,New-age,Pop,Prolific_id,Provo_ID,R&B,Rap,Reggae,Religious,Rock,Soul,Swing,Traditional,age,artist_name,correct,correctResponse,distraction,duration,education,ended_on,familiarity,gender,headphone_check_performance,item,list,music_frequency,offensiveness,pleasantness,position_correct,preference,response,response_action,snippet_file,song_name,song_rating,sound,stimulus_1,stimulus_2,stimulus_3,text,time_commit,time_end,time_render,time_run,time_show,time_switch,url,word,word_ID
Prolific ID,html.Form,0,2021-04-26T09:29:28.268Z,"{""labjs_version"":""20.2.2"",""labjs_build"":{""flavor"":""production"",""commit"":""a25486e0c714a0ae2ce03ff94b7bb6896854dcfa""},""location"":""https://run.pavlovia.org/mvasilev/prolific_music_a/"",""userAgent"":""Mozilla/5.0 (Macintosh; Intel Mac OS X 10_15_7) AppleWebKit/537.36 (KHTML, like Gecko) Chrome/90.0.4430.85 Safari/537.36"",""platform"":""MacIntel"",""language"":""en-US"",""locale"":""en-GB"",""timeZone"":""Europe/London"",""timezoneOffset"":-60,""screen_width"":1440,""screen_height"":900,""scroll_width"":1440,""scroll_height"":741,""window_innerWidth"":1440,""window_innerHeight"":789,""devicePixelRatio"":2}",,,,,,,,,,,,,,,607d65d4c6943d9d18df3733,,,,,,,,,,,,,,,6025.987999999659,,form submission,,,,,,,,,,,,,,,,,,,,,12508.600000000115,12507.96999999966,6465.316,6464.864999999918,6481.982,12502.435,{},,
Introduction,html.Screen,1_0,2021-04-26T09:29:32.273Z,,,,,,,,,,,,,,,,,,,,,,,,,,,,,,,4006.3249999997115,,response,,,,,,,,,,,continue,click button,,,,,,,,,16513.130000000274,16508.75999999971,12485.769,12508.850000000166,12502.435,16518.941,,,
Volume calibration,html.Screen,1_1,2021-04-26T09:29:43.447Z,,,,,,,,,,,,,,,,,,,,,,,,,,,,,,,11158.888999999632,,response,,,,,,,,,,,continue,click button,,,,,,,,,27686.32499999967,27677.82999999963,16502.275,16513.355000000047,16518.941,27695.357,,,
Task instructions,html.Screen,1_2,2021-04-26T09:29:57.560Z,,,,,,,,,,,,,,,,,,,,,,,,,,,,,,,14099.947999999644,,response,,,,,,,,,,,continue,click button,,,,,,,,,41799.25999999978,41795.304999999644,27678.691,27686.50499999967,27695.357,41811.459,,,
Sounds,html.Screen,1_3_0_0,2021-04-26T09:30:01.817Z,,,,,,,,,,,,,,,,,,,,,,,,,,,,,,,4255.587999999996,,timeout,,,,,,,,,2,,,,,,,,I,S,O,,46055.98000000009,46050.381,41794.793,41799.6549999998,41811.459,46067.047,,,
Judgement,html.Screen,1_3_0_1,2021-04-26T09:30:03.813Z,,,,,,,,,,,,,,,,,,,,,,,,,,,,true,2,,1980.597999999649,,response,,,,,,,,,2,,2,click #choice-2,,,,,I,S,O,,48051.940000000286,48047.64499999965,46050.381,46056.21499999961,46067.047,48066.967,,,
Trial,flow.Sequence,1_3_0,2021-04-26T09:30:03.813Z,,,,,,,,,,,,,,,,,,,,,,,,,,,,,,,6236.185999999645,,completion,,,,,,,,,2,,,,,,,,I,S,O,,48052.47500000041,48047.64499999965,41794.793,41799.56000000038,41811.459,48066.967,,,
Sounds,html.Screen,1_3_1_0,2021-04-26T09:30:08.063Z,,,,,,,,,,,,,,,,,,,,,,,,,,,,,,,4249.830000000002,,timeout,,,,,,,,,3,,,,,,,,I,O,S,,52301.894999999604,52300.131,48050.301,48052.71499999981,48066.967,52316.797,,,
Judgement,html.Screen,1_3_1_1,2021-04-26T09:30:09.962Z,,,,,,,,,,,,,,,,,,,,,,,,,,,,true,3,,1880.2529999997641,,response,,,,,,,,,3,,3,click #choice-3,,,,,I,O,S,,54201.170000000275,54197.04999999976,52300.131,52302.09999999988,52316.797,54210.206,,,
Trial,flow.Sequence,1_3_1,2021-04-26T09:30:09.963Z,,,,,,,,,,,,,,,,,,,,,,,,,,,,,,,6130.082999999766,,completion,,,,,,,,,3,,,,,,,,I,O,S,,54201.474999999846,54197.04999999976,48050.301,48052.63500000001,48066.967,54210.206,,,
Sounds,html.Screen,1_3_2_0,2021-04-26T09:30:14.208Z,,,,,,,,,,,,,,,,,,,,,,,,,,,,,,,4249.830000000002,,timeout,,,,,,,,,1,,,,,,,,S,O,I,,58446.32999999976,58443.37,54193.54,54201.68999999987,54210.206,58460.036,,,
Judgement,html.Screen,1_3_2_1,2021-04-26T09:30:15.083Z,,,,,,,,,,,,,,,,,,,,,,,,,,,,true,1,,857.9590000003373,,response,,,,,,,,,1,,1,click #choice-1,,,,,S,O,I,,59322.06000000042,59317.99500000034,58443.37,58446.53500000004,58460.036,59326.668,,,
Trial,flow.Sequence,1_3_2,2021-04-26T09:30:15.084Z,,,,,,,,,,,,,,,,,,,,,,,,,,,,,,,5107.789000000339,,completion,,,,,,,,,1,,,,,,,,S,O,I,,59322.34499999959,59317.99500000034,54193.54,54201.61499999995,54210.206,59326.668,,,
Sounds,html.Screen,1_3_3_0,2021-04-26T09:30:19.324Z,,,,,,,,,,,,,,,,,,,,,,,,,,,,,,,4249.830000000002,,timeout,,,,,,,,,1,,,,,,,,S,I,O,,63562.85000000025,63559.832,59310.002,59322.55999999961,59326.668,63576.498,,,
Judgement,html.Screen,1_3_3_1,2021-04-26T09:30:19.953Z,,,,,,,,,,,,,,,,,,,,,,,,,,,,true,1,,611.1169999998237,,response,,,,,,,,,1,,1,click #choice-1,,,,,S,I,O,,64191.87499999953,64187.61499999982,63559.832,63563.04,63576.498,64193.14,,,
Trial,flow.Sequence,1_3_3,2021-04-26T09:30:19.954Z,,,,,,,,,,,,,,,,,,,,,,,,,,,,,,,4860.9469999998255,,completion,,,,,,,,,1,,,,,,,,S,I,O,,64192.1599999996,64187.61499999982,59310.002,59322.479999999814,59326.668,64193.14,,,
Sounds,html.Screen,1_3_4_0,2021-04-26T09:30:24.194Z,,,,,,,,,,,,,,,,,,,,,,,,,,,,,,,4253.451000000001,,timeout,,,,,,,,,2,,,,,,,,O,S,I,,68432.64999999973,68429.925,64176.474,64192.34500000039,64193.14,68446.591,,,
Judgement,html.Screen,1_3_4_1,2021-04-26T09:30:24.978Z,,,,,,,,,,,,,,,,,,,,,,,,,,,,true,2,,766.1489999999321,,response,,,,,,,,,2,,2,click #choice-2,,,,,O,S,I,,69216.72000000035,69212.73999999993,68429.925,68434.62499999987,68446.591,69229.893,,,
Trial,flow.Sequence,1_3_4,2021-04-26T09:30:24.979Z,,,,,,,,,,,,,,,,,,,,,,,,,,,,,,,5019.599999999933,,completion,,,,,,,,,2,,,,,,,,O,S,I,,69217.0100000003,69212.73999999993,64176.474,64192.28999999996,64193.14,69229.893,,,
Sounds,html.Screen,1_3_5_0,2021-04-26T09:30:29.227Z,,,,,,,,,,,,,,,,,,,,,,,,,,,,,,,4249.830000000002,,timeout,,,,,,,,,3,,,,,,,,O,I,S,,73465.20500000042,73463.057,69213.227,69217.19500000018,69229.893,73479.723,,,
Judgement,html.Screen,1_3_5_1,2021-04-26T09:30:30.023Z,,,,,,,,,,,,,,,,,,,,,,,,,,,,true,3,,777.1219999998866,,response,,,,,,,,,3,,3,click #choice-3,,,,,O,I,S,,74260.8650000002,74256.84499999988,73463.057,73465.3900000003,73479.723,74263.025,,,
Trial,flow.Sequence,1_3_5,2021-04-26T09:30:30.023Z,,,,,,,,,,,,,,,,,,,,,,,,,,,,,,,5026.951999999888,,completion,,,,,,,,,3,,,,,,,,O,I,S,,74261.23499999994,74256.84499999988,69213.227,69217.13499999986,69229.893,74263.025,,,
Task,flow.Loop,1_3,2021-04-26T09:30:30.029Z,,,,,,,,,,,,,,,,,,,,,,,,,,,,,,,32445.385999999882,,completion,,,1,,,,,,,,,,,,,,,,,,74267.65499999965,74256.84499999988,41794.793,41799.46000000018,41811.459,74263.025,,,
Trap,html.Screen,1_4,2021-04-26T09:30:30.031Z,,,,,,,,,,,,,,,,,,,,,,,,,,,,,,,NaN,,skipped,,,,,,,,,,,,,,,,,,,,,74268.8049999997,74256.84499999988,,74268.685,,74263.025,,,
Thanks,html.Screen,1_5,2021-04-26T09:30:33.004Z,,,,,,,,,,,,,,,,,,,,,,,,,,,,,,,2974.9500000000116,,response,,,,,,,,,,,continue,click button,,,,,,,,,77241.97999999978,77237.975,74246.359,74268.90999999977,74263.025,81377.981,,,
Headphone screening,flow.Sequence,1,2021-04-26T09:30:33.004Z,,,,,,,,,,,,,,,,,,,,,,,,,,,,,,,64735.54000000001,,completion,,,,,,,,,,,,,,,,,,,,,77242.24500000037,77237.975,12485.769,12508.81500000014,12502.435,81377.981,,,
Instructions,html.Page,2_0,2021-04-26T09:31:16.219Z,,,,,,,,,,,,,,,,,,,,,,,,,,,,,,,39076.018999999724,,form submission,,,,,,,,,,,,,,,,,,,,,120455.63000000038,120453.99999999972,81361.315,81379.31500000013,81377.981,120459.751,,,
Holding screen,html.Screen,2_1_0_0,2021-04-26T09:31:26.215Z,,,,,,,,,,,,,,,,,,,,,,,,,,,,,,,10006.077999999994,,timeout,,,,,,,,,,,,,,,,,,,,,130451.87999999963,130449.163,120443.085,120455.88000000044,120459.751,130465.829,,,
screen,html.Screen,2_1_0_1_0,2021-04-26T09:31:27.396Z,,,,,,,,,,,,,,,,,53,,,,,,,,,,,,,,1157.581000000151,,response,,,,99,,,,,,,Space,keypress(Space),,,,,,,,When -- ----- -- ------ - ------- --- ----------<br>------------- ------ ------ ---- ---- ------- ----- -- ----<br>-------- ------- -- ---------- --- - --- ----- ----- ----<br>---- --- --- ----- --- ---- ---- ------- ----- ---- -------<br>--- --- -- ----- -- --- ---- -- --- ---- -- ------ ------<br>--- ----- -- ----,131632.86499999958,131623.41000000015,130449.163,130452.17500000035,130465.829,131641.888,,0,When
screen,html.Screen,2_1_0_1_1,2021-04-26T09:31:27.942Z,,,,,,,,,,,,,,,,,53,,,,,,,,,,,,,,531.4220000001078,,response,,,,99,,,,,,,Space,keypress(Space),,,,,,,,---- it ----- -- ------ - ------- --- ----------<br>------------- ------ ------ ---- ---- ------- ----- -- ----<br>-------- ------- -- ---------- --- - --- ----- ----- ----<br>---- --- --- ----- --- ---- ---- ------- ----- ---- -------<br>--- --- -- ----- -- --- ---- -- --- ---- -- ------ ------<br>--- ----- -- ----,132179.04999999973,132173.3100000001,131625.222,131632.99000000005,131641.888,132191.866,,1,it
screen,html.Screen,2_1_0_1_2,2021-04-26T09:31:28.493Z,,,,,,,,,,,,,,,,,53,,,,,,,,,,,,,,531.5289999999804,,response,,,,99,,,,,,,Space,keypress(Space),,,,,,,,---- -- comes -- ------ - ------- --- ----------<br>------------- ------ ------ ---- ---- ------- ----- -- ----<br>-------- ------- -- ---------- --- - --- ----- ----- ----<br>---- --- --- ----- --- ---- ---- ------- ----- ---- -------<br>--- --- -- ----- -- --- ---- -- --- ---- -- ------ ------<br>--- ----- -- ----,132729.36000000028,132723.395,132175.2,132179.22499999986,132191.866,132741.844,,2,comes
screen,html.Screen,2_1_0_1_3,2021-04-26T09:31:29.077Z,,,,,,,,,,,,,,,,,53,,,,,,,,,,,,,,565.506000000023,,response,,,,99,,,,,,,Space,keypress(Space),,,,,,,,---- -- ----- to ------ - ------- --- ----------<br>------------- ------ ------ ---- ---- ------- ----- -- ----<br>-------- ------- -- ---------- --- - --- ----- ----- ----<br>---- --- --- ----- --- ---- ---- ------- ----- ---- -------<br>--- --- -- ----- -- --- ---- -- --- ---- -- ------ ------<br>--- ----- -- ----,133313.0600000004,133307.35000000003,132725.178,132729.53500000038,132741.844,133325.154,,3,to
screen,html.Screen,2_1_0_1_4,2021-04-26T09:31:29.636Z,,,,,,,,,,,,,,,,,53,,,,,,,,,,,,,,542.0610000001907,,response,,,,99,,,,,,,Space,keypress(Space),,,,,,,,---- -- ----- -- having - ------- --- ----------<br>------------- ------ ------ ---- ---- ------- ----- -- ----<br>-------- ------- -- ---------- --- - --- ----- ----- ----<br>---- --- --- ----- --- ---- ---- ------- ----- ---- -------<br>--- --- -- ----- -- --- ---- -- --- ---- -- ------ ------<br>--- ----- -- ----,133872.91000000003,133867.2150000002,133308.488,133313.22999999975,133325.154,133875.132,,4,having
screen,html.Screen,2_1_0_1_5,2021-04-26T09:31:30.148Z,,,,,,,,,,,,,,,,,53,,,,,,,,,,,,,,503.15799999964656,,response,,,,99,,,,,,,Space,keypress(Space),,,,,,,,---- -- ----- -- ------ a ------- --- ----------<br>------------- ------ ------ ---- ---- ------- ----- -- ----<br>-------- ------- -- ---------- --- - --- ----- ----- ----<br>---- --- --- ----- --- ---- ---- ------- ----- ---- -------<br>--- --- -- ----- -- --- ---- -- --- ---- -- ------ ------<br>--- ----- -- ----,134384.14999999985,134378.28999999966,133858.466,133873.05000000016,133875.132,134391.778,,5,a
screen,html.Screen,2_1_0_1_6,2021-04-26T09:31:30.706Z,,,,,,,,,,,,,,,,,53,,,,,,,,,,,,,,545.2870000000694,,response,,,,99,,,,,,,Space,keypress(Space),,,,,,,,---- -- ----- -- ------ - lasting --- ----------<br>------------- ------ ------ ---- ---- ------- ----- -- ----<br>-------- ------- -- ---------- --- - --- ----- ----- ----<br>---- --- --- ----- --- ---- ---- ------- ----- ---- -------<br>--- --- -- ----- -- --- ---- -- --- ---- -- ------ ------<br>--- ----- -- ----,134942.84499999956,134937.06500000006,134375.112,134384.32499999998,134391.778,134958.422,,6,lasting
screen,html.Screen,2_1_0_1_7,2021-04-26T09:31:31.239Z,,,,,,,,,,,,,,,,,53,,,,,,,,,,,,,,511.8429999999353,,response,,,,99,,,,,,,Space,keypress(Space),,,,,,,,---- -- ----- -- ------ - ------- and ----------<br>------------- ------ ------ ---- ---- ------- ----- -- ----<br>-------- ------- -- ---------- --- - --- ----- ----- ----<br>---- --- --- ----- --- ---- ---- ------- ----- ---- -------<br>--- --- -- ----- -- --- ---- -- --- ---- -- ------ ------<br>--- ----- -- ----,135475.9549999999,135470.26499999993,134941.756,134943.0199999997,134958.422,135491.734,,7,and
screen,html.Screen,2_1_0_1_8,2021-04-26T09:31:31.861Z,,,,,,,,,,,,,,,,,53,,,,,,,,,,,,,,599.6159999996889,,response,,,,99,,,,,,,Space,keypress(Space),,,,,,,,---- -- ----- -- ------ - ------- --- fulfilling<br>------------- ------ ------ ---- ---- ------- ----- -- ----<br>-------- ------- -- ---------- --- - --- ----- ----- ----<br>---- --- --- ----- --- ---- ---- ------- ----- ---- -------<br>--- --- -- ----- -- --- ---- -- --- ---- -- ------ ------<br>--- ----- -- ----,136097.06499999994,136091.3499999997,135475.068,135476.12500000015,135491.734,136108.376,,8,fulfilling
screen,html.Screen,2_1_0_1_9,2021-04-26T09:31:32.358Z,,,,,,,,,,,,,,,,,53,,,,,,,,,,,,,,479.829000000027,,response,,,,99,,,,,,,Space,keypress(Space),,,,,,,,"---- -- ----- -- ------ - ------- --- ----------<br>relationship, ------ ------ ---- ---- ------- ----- -- ----<br>-------- ------- -- ---------- --- - --- ----- ----- ----<br>---- --- --- ----- --- ---- ---- ------- ----- ---- -------<br>--- --- -- ----- -- --- ---- -- --- ---- -- ------ ------<br>--- ----- -- ----",136593.95000000042,136588.20500000002,136091.71,136097.38500000004,136108.376,136608.356,,9,"relationship,"
screen,html.Screen,2_1_0_1_10,2021-04-26T09:31:33.022Z,,,,,,,,,,,,,,,,,53,,,,,,,,,,,,,,644.7789999999222,,response,,,,99,,,,,,,Space,keypress(Space),,,,,,,,---- -- ----- -- ------ - ------- --- ----------<br>------------- common ------ ---- ---- ------- ----- -- ----<br>-------- ------- -- ---------- --- - --- ----- ----- ----<br>---- --- --- ----- --- ---- ---- ------- ----- ---- -------<br>--- --- -- ----- -- --- ---- -- --- ---- -- ------ ------<br>--- ----- -- ----,137258.89999999982,137253.13499999992,136591.69,136594.12499999962,136608.356,137274.996,,10,common
screen,html.Screen,2_1_0_1_11,2021-04-26T09:31:33.751Z,,,,,,,,,,,,,,,,,53,,,,,,,,,,,,,,706.1889999996347,,response,,,,99,,,,,,,Space,keypress(Space),,,,,,,,---- -- ----- -- ------ - ------- --- ----------<br>------------- ------ wisdom ---- ---- ------- ----- -- ----<br>-------- ------- -- ---------- --- - --- ----- ----- ----<br>---- --- --- ----- --- ---- ---- ------- ----- ---- -------<br>--- --- -- ----- -- --- ---- -- --- ---- -- ------ ------<br>--- ----- -- ----,137986.90999999963,137981.18499999965,137258.33,137259.0799999998,137274.996,137991.634,,11,wisdom
screen,html.Screen,2_1_0_1_12,2021-04-26T09:31:34.284Z,,,,,,,,,,,,,,,,,53,,,,,,,,,,,,,,521.37099999981,,response,,,,99,,,,,,,Space,keypress(Space),,,,,,,,---- -- ----- -- ------ - ------- --- ----------<br>------------- ------ ------ says ---- ------- ----- -- ----<br>-------- ------- -- ---------- --- - --- ----- ----- ----<br>---- --- --- ----- --- ---- ---- ------- ----- ---- -------<br>--- --- -- ----- -- --- ---- -- --- ---- -- ------ ------<br>--- ----- -- ----,138520.4050000002,138513.0049999998,137974.968,137987.08499999976,137991.634,138524.946,,12,says
screen,html.Screen,2_1_0_1_13,2021-04-26T09:31:34.943Z,,,,,,,,,,,,,,,,,53,,,,,,,,,,,,,,650.0490000003192,,response,,,,99,,,,,,,Space,keypress(Space),,,,,,,,---- -- ----- -- ------ - ------- --- ----------<br>------------- ------ ------ ---- that ------- ----- -- ----<br>-------- ------- -- ---------- --- - --- ----- ----- ----<br>---- --- --- ----- --- ---- ---- ------- ----- ---- -------<br>--- --- -- ----- -- --- ---- -- --- ---- -- ------ ------<br>--- ----- -- ----,139179.3799999996,139174.99500000032,138508.28,138520.49499999976,138524.946,139191.586,,13,that
screen,html.Screen,2_1_0_1_14,2021-04-26T09:31:35.602Z,,,,,,,,,,,,,,,,,53,,,,,,,,,,,,,,640.6589999995776,,response,,,,99,,,,,,,Space,keypress(Space),,,,,,,,---- -- ----- -- ------ - ------- --- ----------<br>------------- ------ ------ ---- ---- feeling ----- -- ----<br>-------- ------- -- ---------- --- - --- ----- ----- ----<br>---- --- --- ----- --- ---- ---- ------- ----- ---- -------<br>--- --- -- ----- -- --- ---- -- --- ---- -- ------ ------<br>--- ----- -- ----,139838.1300000001,139832.2449999996,139174.92,139179.5350000002,139191.586,139841.56,,14,feeling
screen,html.Screen,2_1_0_1_15,2021-04-26T09:31:36.242Z,,,,,,,,,,,,,,,,,53,,,,,,,,,,,,,,630.6599999996542,,response,,,,99,,,,,,,Space,keypress(Space),,,,,,,,---- -- ----- -- ------ - ------- --- ----------<br>------------- ------ ------ ---- ---- ------- close -- ----<br>-------- ------- -- ---------- --- - --- ----- ----- ----<br>---- --- --- ----- --- ---- ---- ------- ----- ---- -------<br>--- --- -- ----- -- --- ---- -- --- ---- -- ------ ------<br>--- ----- -- ----,140477.96000000017,140472.21999999965,139824.894,139838.31000000008,139841.56,140491.534,,15,close
screen,html.Screen,2_1_0_1_16,2021-04-26T09:31:36.688Z,,,,,,,,,,,,,,,,,53,,,,,,,,,,,,,,426.6009999998787,,response,,,,99,,,,,,,Space,keypress(Space),,,,,,,,---- -- ----- -- ------ - ------- --- ----------<br>------------- ------ ------ ---- ---- ------- ----- to ----<br>-------- ------- -- ---------- --- - --- ----- ----- ----<br>---- --- --- ----- --- ---- ---- ------- ----- ---- -------<br>--- --- -- ----- -- --- ---- -- --- ---- -- ------ ------<br>--- ----- -- ----,140923.96000000008,140918.1349999999,140474.868,140478.1300000004,140491.534,140938.472,,16,to
screen,html.Screen,2_1_0_1_17,2021-04-26T09:31:37.878Z,,,,,,,,,,,,,,,,,53,,,,,,,,,,,,,,1170.38300000038,,response,,,,99,,,,,,,Space,keypress(Space),,,,,,,,---- -- ----- -- ------ - ------- --- ----------<br>------------- ------ ------ ---- ---- ------- ----- -- your<br>-------- ------- -- ---------- --- - --- ----- ----- ----<br>---- --- --- ----- --- ---- ---- ------- ----- ---- -------<br>--- --- -- ----- -- --- ---- -- --- ---- -- ------ ------<br>--- ----- -- ----,142114.4599999998,142108.8550000004,140921.806,140924.14000000007,140938.472,142121.758,,17,your
screen,html.Screen,2_1_0_1_18,2021-04-26T09:31:38.430Z,,,,,,,,,,,,,,,,,53,,,,,,,,,,,,,,539.3070000002335,,response,,,,99,,,,,,,Space,keypress(Space),,,,,,,,---- -- ----- -- ------ - ------- --- ----------<br>------------- ------ ------ ---- ---- ------- ----- -- ----<br>romantic ------- -- ---------- --- - --- ----- ----- ----<br>---- --- --- ----- --- ---- ---- ------- ----- ---- -------<br>--- --- -- ----- -- --- ---- -- --- ---- -- ------ ------<br>--- ----- -- ----,142666.6500000001,142661.06500000024,142105.092,142114.63999999978,142121.758,142671.736,,18,romantic
screen,html.Screen,2_1_0_1_19,2021-04-26T09:31:39.051Z,,,,,,,,,,,,,,,,,53,,,,,,,,,,,,,,609.4539999997069,,response,,,,99,,,,,,,Space,keypress(Space),,,,,,,,---- -- ----- -- ------ - ------- --- ----------<br>------------- ------ ------ ---- ---- ------- ----- -- ----<br>-------- partner -- ---------- --- - --- ----- ----- ----<br>---- --- --- ----- --- ---- ---- ------- ----- ---- -------<br>--- --- -- ----- -- --- ---- -- --- ---- -- ------ ------<br>--- ----- -- ----,143287.15499999997,143281.1899999997,142655.07,142666.82500000024,142671.736,143288.378,,19,partner
screen,html.Screen,2_1_0_1_20,2021-04-26T09:31:39.667Z,,,,,,,,,,,,,,,,,53,,,,,,,,,,,,,,608.8119999996852,,response,,,,99,,,,,,,Space,keypress(Space),,,,,,,,---- -- ----- -- ------ - ------- --- ----------<br>------------- ------ ------ ---- ---- ------- ----- -- ----<br>-------- ------- is ---------- --- - --- ----- ----- ----<br>---- --- --- ----- --- ---- ---- ------- ----- ---- -------<br>--- --- -- ----- -- --- ---- -- --- ---- -- ------ ------<br>--- ----- -- ----,143902.8049999997,143897.18999999968,143271.712,143287.3300000001,143288.378,143905.02,,20,is
screen,html.Screen,2_1_0_1_21,2021-04-26T09:31:40.319Z,,,,,,,,,,,,,,,,,53,,,,,,,,,,,,,,643.1500000000524,,response,,,,99,,,,,,,Space,keypress(Space),,,,,,,,---- -- ----- -- ------ - ------- --- ----------<br>------------- ------ ------ ---- ---- ------- ----- -- ----<br>-------- ------- -- paramount. --- - --- ----- ----- ----<br>---- --- --- ----- --- ---- ---- ------- ----- ---- -------<br>--- --- -- ----- -- --- ---- -- --- ---- -- ------ ------<br>--- ----- -- ----,144554.9350000001,144548.17000000004,143888.354,143902.97999999984,143905.02,144571.66,,21,paramount.
screen,html.Screen,2_1_0_1_22,2021-04-26T09:31:40.931Z,,,,,,,,,,,,,,,,,53,,,,,,,,,,,,,,589.4050000002317,,response,,,,99,,,,,,,Space,keypress(Space),,,,,,,,---- -- ----- -- ------ - ------- --- ----------<br>------------- ------ ------ ---- ---- ------- ----- -- ----<br>-------- ------- -- ---------- But - --- ----- ----- ----<br>---- --- --- ----- --- ---- ---- ------- ----- ---- -------<br>--- --- -- ----- -- --- ---- -- --- ---- -- ------ ------<br>--- ----- -- ----,145166.69999999978,145161.06500000024,144554.994,144555.05499999982,144571.66,145171.636,,22,But
screen,html.Screen,2_1_0_1_23,2021-04-26T09:31:41.505Z,,,,,,,,,,,,,,,,,53,,,,,,,,,,,,,,564.4339999999211,,response,,,,99,,,,,,,Space,keypress(Space),,,,,,,,---- -- ----- -- ------ - ------- --- ----------<br>------------- ------ ------ ---- ---- ------- ----- -- ----<br>-------- ------- -- ---------- --- a --- ----- ----- ----<br>---- --- --- ----- --- ---- ---- ------- ----- ---- -------<br>--- --- -- ----- -- --- ---- -- --- ---- -- ------ ------<br>--- ----- -- ----,145741.62499999965,145736.06999999992,145154.97,145166.9149999998,145171.636,145754.946,,23,a
screen,html.Screen,2_1_0_1_24,2021-04-26T09:31:42.096Z,,,,,,,,,,,,,,,,,53,,,,,,,,,,,,,,572.8390000004147,,response,,,,99,,,,,,,Space,keypress(Space),,,,,,,,---- -- ----- -- ------ - ------- --- ----------<br>------------- ------ ------ ---- ---- ------- ----- -- ----<br>-------- ------- -- ---------- --- - new ----- ----- ----<br>---- --- --- ----- --- ---- ---- ------- ----- ---- -------<br>--- --- -- ----- -- --- ---- -- --- ---- -- ------ ------<br>--- ----- -- ----,146331.7500000003,146327.7850000004,145738.28,145741.7349999996,145754.946,146338.256,,24,new
screen,html.Screen,2_1_0_1_25,2021-04-26T09:31:42.715Z,,,,,,,,,,,,,,,,,53,,,,,,,,,,,,,,606.7789999997476,,response,,,,99,,,,,,,Space,keypress(Space),,,,,,,,---- -- ----- -- ------ - ------- --- ----------<br>------------- ------ ------ ---- ---- ------- ----- -- ----<br>-------- ------- -- ---------- --- - --- study ----- ----<br>---- --- --- ----- --- ---- ---- ------- ----- ---- -------<br>--- --- -- ----- -- --- ---- -- --- ---- -- ------ ------<br>--- ----- -- ----,146950.8249999999,146945.03499999974,146321.59,146333.0100000003,146338.256,146954.898,,25,study
screen,html.Screen,2_1_0_1_26,2021-04-26T09:31:43.285Z,,,,,,,,,,,,,,,,,53,,,,,,,,,,,,,,560.8869999996095,,response,,,,99,,,,,,,Space,keypress(Space),,,,,,,,---- -- ----- -- ------ - ------- --- ----------<br>------------- ------ ------ ---- ---- ------- ----- -- ----<br>-------- ------- -- ---------- --- - --- ----- finds ----<br>---- --- --- ----- --- ---- ---- ------- ----- ---- -------<br>--- --- -- ----- -- --- ---- -- --- ---- -- ------ ------<br>--- ----- -- ----,147521.48000000033,147515.7849999996,146938.232,146951.00000000003,146954.898,147538.208,,26,finds
screen,html.Screen,2_1_0_1_27,2021-04-26T09:31:43.785Z,,,,,,,,,,,,,,,,,53,,,,,,,,,,,,,,476.7819999996573,,response,,,,99,,,,,,,Space,keypress(Space),,,,,,,,---- -- ----- -- ------ - ------- --- ----------<br>------------- ------ ------ ---- ---- ------- ----- -- ----<br>-------- ------- -- ---------- --- - --- ----- ----- that<br>---- --- --- ----- --- ---- ---- ------- ----- ---- -------<br>--- --- -- ----- -- --- ---- -- --- ---- -- ------ ------<br>--- ----- -- ----,148020.6049999997,148014.98999999967,147521.542,147521.66000000032,147538.208,148038.188,,27,that
screen,html.Screen,2_1_0_1_28,2021-04-26T09:31:44.355Z,,,,,,,,,,,,,,,,,53,,,,,,,,,,,,,,545.9219999997877,,response,,,,99,,,,,,,Space,keypress(Space),,,,,,,,---- -- ----- -- ------ - ------- --- ----------<br>------------- ------ ------ ---- ---- ------- ----- -- ----<br>-------- ------- -- ---------- --- - --- ----- ----- ----<br>it's --- --- ----- --- ---- ---- ------- ----- ---- -------<br>--- --- -- ----- -- --- ---- -- --- ---- -- ------ ------<br>--- ----- -- ----,148590.90500000003,148584.10999999978,148021.522,148020.7849999997,148038.188,148604.832,,28,it's
screen,html.Screen,2_1_0_1_29,2021-04-26T09:31:44.895Z,,,,,,,,,,,,,,,,,53,,,,,,,,,,,,,,520.2429999999295,,response,,,,99,,,,,,,Space,keypress(Space),,,,,,,,---- -- ----- -- ------ - ------- --- ----------<br>------------- ------ ------ ---- ---- ------- ----- -- ----<br>-------- ------- -- ---------- --- - --- ----- ----- ----<br>---- not --- ----- --- ---- ---- ------- ----- ---- -------<br>--- --- -- ----- -- --- ---- -- --- ---- -- ------ ------<br>--- ----- -- ----,149130.9449999999,149125.07499999992,148588.166,148591.08500000002,148604.832,149138.144,,29,not
screen,html.Screen,2_1_0_1_30,2021-04-26T09:31:45.492Z,,,,,,,,,,,,,,,,,53,,,,,,,,,,,,,,583.7260000003153,,response,,,,99,,,,,,,Space,keypress(Space),,,,,,,,---- -- ----- -- ------ - ------- --- ----------<br>------------- ------ ------ ---- ---- ------- ----- -- ----<br>-------- ------- -- ---------- --- - --- ----- ----- ----<br>---- --- how ----- --- ---- ---- ------- ----- ---- -------<br>--- --- -- ----- -- --- ---- -- --- ---- -- ------ ------<br>--- ----- -- ----,149727.56500000015,149721.87000000032,149121.478,149131.12499999988,149138.144,149738.12,,30,how
screen,html.Screen,2_1_0_1_31,2021-04-26T09:31:46.062Z,,,,,,,,,,,,,,,,,53,,,,,,,,,,,,,,553.8349999997008,,response,,,,99,,,,,,,Space,keypress(Space),,,,,,,,---- -- ----- -- ------ - ------- --- ----------<br>------------- ------ ------ ---- ---- ------- ----- -- ----<br>-------- ------- -- ---------- --- - --- ----- ----- ----<br>---- --- --- close --- ---- ---- ------- ----- ---- -------<br>--- --- -- ----- -- --- ---- -- --- ---- -- ------ ------<br>--- ----- -- ----,150297.76500000025,150291.9549999997,149721.454,149727.68499999982,149738.12,150304.764,,31,close
screen,html.Screen,2_1_0_1_32,2021-04-26T09:31:46.609Z,,,,,,,,,,,,,,,,,53,,,,,,,,,,,,,,534.3060000000114,,response,,,,99,,,,,,,Space,keypress(Space),,,,,,,,---- -- ----- -- ------ - ------- --- ----------<br>------------- ------ ------ ---- ---- ------- ----- -- ----<br>-------- ------- -- ---------- --- - --- ----- ----- ----<br>---- --- --- ----- you ---- ---- ------- ----- ---- -------<br>--- --- -- ----- -- --- ---- -- --- ---- -- ------ ------<br>--- ----- -- ----,150844.68000000017,150839.07,150288.098,150297.94500000024,150304.764,150854.742,,32,you
screen,html.Screen,2_1_0_1_33,2021-04-26T09:31:47.105Z,,,,,,,,,,,,,,,,,53,,,,,,,,,,,,,,478.1980000002368,,response,,,,99,,,,,,,Space,keypress(Space),,,,,,,,---- -- ----- -- ------ - ------- --- ----------<br>------------- ------ ------ ---- ---- ------- ----- -- ----<br>-------- ------- -- ---------- --- - --- ----- ----- ----<br>---- --- --- ----- --- feel ---- ------- ----- ---- -------<br>--- --- -- ----- -- --- ---- -- --- ---- -- ------ ------<br>--- ----- -- ----,151340.54000000015,151332.94000000024,150838.076,150844.85500000027,150854.742,151346.542,,33,feel
screen,html.Screen,2_1_0_1_34,2021-04-26T09:31:47.707Z,,,,,,,,,,,,,,,,,53,,,,,,,,,,,,,,590.5629999999946,,response,,,,99,,,,,,,Space,keypress(Space),,,,,,,,---- -- ----- -- ------ - ------- --- ----------<br>------------- ------ ------ ---- ---- ------- ----- -- ----<br>-------- ------- -- ---------- --- - --- ----- ----- ----<br>---- --- --- ----- --- ---- that ------- ----- ---- -------<br>--- --- -- ----- -- --- ---- -- --- ---- -- ------ ------<br>--- ----- -- ----,151942.9650000002,151937.10499999998,151329.876,151341.0299999996,151346.542,151946.518,,34,that
screen,html.Screen,2_1_0_1_35,2021-04-26T09:31:48.263Z,,,,,,,,,,,,,,,,,53,,,,,,,,,,,,,,546.3669999996491,,response,,,,99,,,,,,,Space,keypress(Space),,,,,,,,---- -- ----- -- ------ - ------- --- ----------<br>------------- ------ ------ ---- ---- ------- ----- -- ----<br>-------- ------- -- ---------- --- - --- ----- ----- ----<br>---- --- --- ----- --- ---- ---- matters ----- ---- -------<br>--- --- -- ----- -- --- ---- -- --- ---- -- ------ ------<br>--- ----- -- ----,152498.59000000014,152492.88499999966,151929.852,151943.18500000008,151946.518,152513.162,,35,matters
screen,html.Screen,2_1_0_1_36,2021-04-26T09:31:48.832Z,,,,,,,,,,,,,,,,,53,,,,,,,,,,,,,,548.8029999998689,,response,,,,99,,,,,,,Space,keypress(Space),,,,,,,,"---- -- ----- -- ------ - ------- --- ----------<br>------------- ------ ------ ---- ---- ------- ----- -- ----<br>-------- ------- -- ---------- --- - --- ----- ----- ----<br>---- --- --- ----- --- ---- ---- ------- most, ---- -------<br>--- --- -- ----- -- --- ---- -- --- ---- -- ------ ------<br>--- ----- -- ----",153067.80999999956,153061.96499999988,152496.496,152500.03500000003,152513.162,153079.806,,36,"most,"
screen,html.Screen,2_1_0_1_37,2021-04-26T09:31:49.329Z,,,,,,,,,,,,,,,,,53,,,,,,,,,,,,,,479.08900000012363,,response,,,,99,,,,,,,Space,keypress(Space),,,,,,,,---- -- ----- -- ------ - ------- --- ----------<br>------------- ------ ------ ---- ---- ------- ----- -- ----<br>-------- ------- -- ---------- --- - --- ----- ----- ----<br>---- --- --- ----- --- ---- ---- ------- ----- it's -------<br>--- --- -- ----- -- --- ---- -- --- ---- -- ------ ------<br>--- ----- -- ----,153564.62499999997,153558.89500000014,153063.14,153067.9799999998,153079.806,153579.786,,37,it's
screen,html.Screen,2_1_0_1_38,2021-04-26T09:31:49.886Z,,,,,,,,,,,,,,,,,53,,,,,,,,,,,,,,536.0690000000177,,response,,,,99,,,,,,,Space,keypress(Space),,,,,,,,---- -- ----- -- ------ - ------- --- ----------<br>------------- ------ ------ ---- ---- ------- ----- -- ----<br>-------- ------- -- ---------- --- - --- ----- ----- ----<br>---- --- --- ----- --- ---- ---- ------- ----- ---- whether<br>--- --- -- ----- -- --- ---- -- --- ---- -- ------ ------<br>--- ----- -- ----,154121.56500000038,154115.855,153563.12,153564.79000000036,153579.786,154129.764,,38,whether
screen,html.Screen,2_1_0_1_39,2021-04-26T09:31:50.375Z,,,,,,,,,,,,,,,,,53,,,,,,,,,,,,,,472.21600000036415,,response,,,,99,,,,,,,Space,keypress(Space),,,,,,,,---- -- ----- -- ------ - ------- --- ----------<br>------------- ------ ------ ---- ---- ------- ----- -- ----<br>-------- ------- -- ---------- --- - --- ----- ----- ----<br>---- --- --- ----- --- ---- ---- ------- ----- ---- -------<br>you --- -- ----- -- --- ---- -- --- ---- -- ------ ------<br>--- ----- -- ----,154610.7549999997,154601.98000000036,154113.098,154121.72999999984,154129.764,154613.078,,39,you
screen,html.Screen,2_1_0_1_40,2021-04-26T09:31:50.841Z,,,,,,,,,,,,,,,,,53,,,,,,,,,,,,,,457.7720000000554,,response,,,,99,,,,,,,Space,keypress(Space),,,,,,,,---- -- ----- -- ------ - ------- --- ----------<br>------------- ------ ------ ---- ---- ------- ----- -- ----<br>-------- ------- -- ---------- --- - --- ----- ----- ----<br>---- --- --- ----- --- ---- ---- ------- ----- ---- -------<br>--- are -- ----- -- --- ---- -- --- ---- -- ------ ------<br>--- ----- -- ----,155076.64000000022,155070.85000000006,154596.412,154610.95000000024,154613.078,155079.726,,40,are
screen,html.Screen,2_1_0_1_41,2021-04-26T09:31:51.319Z,,,,,,,,,,,,,,,,,53,,,,,,,,,,,,,,468.2089999995951,,response,,,,99,,,,,,,Space,keypress(Space),,,,,,,,---- -- ----- -- ------ - ------- --- ----------<br>------------- ------ ------ ---- ---- ------- ----- -- ----<br>-------- ------- -- ---------- --- - --- ----- ----- ----<br>---- --- --- ----- --- ---- ---- ------- ----- ---- -------<br>--- --- as ----- -- --- ---- -- --- ---- -- ------ ------<br>--- ----- -- ----,155554.43000000014,155547.9349999996,155063.06,155076.8049999997,155079.726,155563.04,,41,as
screen,html.Screen,2_1_0_1_42,2021-04-26T09:31:51.775Z,,,,,,,,,,,,,,,,,53,,,,,,,,,,,,,,441.82999999975436,,response,,,,99,,,,,,,Space,keypress(Space),,,,,,,,---- -- ----- -- ------ - ------- --- ----------<br>------------- ------ ------ ---- ---- ------- ----- -- ----<br>-------- ------- -- ---------- --- - --- ----- ----- ----<br>---- --- --- ----- --- ---- ---- ------- ----- ---- -------<br>--- --- -- close -- --- ---- -- --- ---- -- ------ ------<br>--- ----- -- ----,156010.58000000013,156004.86999999976,155546.374,155554.54499999995,155563.04,156013.022,,42,close
screen,html.Screen,2_1_0_1_43,2021-04-26T09:31:52.187Z,,,,,,,,,,,,,,,,,53,,,,,,,,,,,,,,406.6929999999993,,response,,,,99,,,,,,,Space,keypress(Space),,,,,,,,---- -- ----- -- ------ - ------- --- ----------<br>------------- ------ ------ ---- ---- ------- ----- -- ----<br>-------- ------- -- ---------- --- - --- ----- ----- ----<br>---- --- --- ----- --- ---- ---- ------- ----- ---- -------<br>--- --- -- ----- as --- ---- -- --- ---- -- ------ ------<br>--- ----- -- ----,156422.5550000001,156419.715,155996.356,156010.7449999996,156013.022,156429.672,,43,as
screen,html.Screen,2_1_0_1_44,2021-04-26T09:31:52.648Z,,,,,,,,,,,,,,,,,53,,,,,,,,,,,,,,448.21799999976065,,response,,,,99,,,,,,,Space,keypress(Space),,,,,,,,---- -- ----- -- ------ - ------- --- ----------<br>------------- ------ ------ ---- ---- ------- ----- -- ----<br>-------- ------- -- ---------- --- - --- ----- ----- ----<br>---- --- --- ----- --- ---- ---- ------- ----- ---- -------<br>--- --- -- ----- -- you ---- -- --- ---- -- ------ ------<br>--- ----- -- ----,156883.85999999993,156877.88999999975,156413.006,156422.6349999999,156429.672,156896.32,,44,you
screen,html.Screen,2_1_0_1_45,2021-04-26T09:31:53.109Z,,,,,,,,,,,,,,,,,53,,,,,,,,,,,,,,443.5449999999255,,response,,,,99,,,,,,,Space,keypress(Space),,,,,,,,---- -- ----- -- ------ - ------- --- ----------<br>------------- ------ ------ ---- ---- ------- ----- -- ----<br>-------- ------- -- ---------- --- - --- ----- ----- ----<br>---- --- --- ----- --- ---- ---- ------- ----- ---- -------<br>--- --- -- ----- -- --- want -- --- ---- -- ------ ------<br>--- ----- -- ----,157345.19,157339.86499999993,156879.654,156884.02500000029,156896.32,157346.302,,45,want
screen,html.Screen,2_1_0_1_46,2021-04-26T09:31:53.514Z,,,,,,,,,,,,,,,,,53,,,,,,,,,,,,,,399.4529999999213,,response,,,,99,,,,,,,Space,keypress(Space),,,,,,,,---- -- ----- -- ------ - ------- --- ----------<br>------------- ------ ------ ---- ---- ------- ----- -- ----<br>-------- ------- -- ---------- --- - --- ----- ----- ----<br>---- --- --- ----- --- ---- ---- ------- ----- ---- -------<br>--- --- -- ----- -- --- ---- to --- ---- -- ------ ------<br>--- ----- -- ----,157750.04999999964,157745.75499999992,157329.636,157345.3099999997,157346.302,157762.952,,46,to
screen,html.Screen,2_1_0_1_47,2021-04-26T09:31:53.919Z,,,,,,,,,,,,,,,,,53,,,,,,,,,,,,,,385.8430000000808,,response,,,,99,,,,,,,Space,keypress(Space),,,,,,,,"---- -- ----- -- ------ - ------- --- ----------<br>------------- ------ ------ ---- ---- ------- ----- -- ----<br>-------- ------- -- ---------- --- - --- ----- ----- ----<br>---- --- --- ----- --- ---- ---- ------- ----- ---- -------<br>--- --- -- ----- -- --- ---- -- be, ---- -- ------ ------<br>--- ----- -- ----",158154.55500000008,158148.79500000007,157746.286,157750.15499999974,157762.952,158162.936,,47,"be,"
screen,html.Screen,2_1_0_1_48,2021-04-26T09:31:54.337Z,,,,,,,,,,,,,,,,,53,,,,,,,,,,,,,,405.91899999952875,,response,,,,99,,,,,,,Space,keypress(Space),,,,,,,,---- -- ----- -- ------ - ------- --- ----------<br>------------- ------ ------ ---- ---- ------- ----- -- ----<br>-------- ------- -- ---------- --- - --- ----- ----- ----<br>---- --- --- ----- --- ---- ---- ------- ----- ---- -------<br>--- --- -- ----- -- --- ---- -- --- even -- ------ ------<br>--- ----- -- ----,158573.15999999992,158568.85499999952,158146.27,158154.71499999968,158162.936,158579.586,,48,even
screen,html.Screen,2_1_0_1_49,2021-04-26T09:31:54.735Z,,,,,,,,,,,,,,,,,53,,,,,,,,,,,,,,384.07900000020163,,response,,,,99,,,,,,,Space,keypress(Space),,,,,,,,---- -- ----- -- ------ - ------- --- ----------<br>------------- ------ ------ ---- ---- ------- ----- -- ----<br>-------- ------- -- ---------- --- - --- ----- ----- ----<br>---- --- --- ----- --- ---- ---- ------- ----- ---- -------<br>--- --- -- ----- -- --- ---- -- --- ---- if ------ ------<br>--- ----- -- ----,158970.66499999983,158963.6650000002,158562.92,158573.25000000038,158579.586,158979.57,,49,if
screen,html.Screen,2_1_0_1_50,2021-04-26T09:31:55.150Z,,,,,,,,,,,,,,,,,53,,,,,,,,,,,,,,399.1700000001001,,response,,,,99,,,,,,,Space,keypress(Space),,,,,,,,---- -- ----- -- ------ - ------- --- ----------<br>------------- ------ ------ ---- ---- ------- ----- -- ----<br>-------- ------- -- ---------- --- - --- ----- ----- ----<br>---- --- --- ----- --- ---- ---- ------- ----- ---- -------<br>--- --- -- ----- -- --- ---- -- --- ---- -- that's ------<br>--- ----- -- ----,159385.33499999993,159378.7400000001,158962.904,158970.82500000033,158979.57,159396.22,,50,that's
screen,html.Screen,2_1_0_1_51,2021-04-26T09:31:55.563Z,,,,,,,,,,,,,,,,,53,,,,,,,,,,,,,,396.51000000012573,,response,,,,99,,,,,,,Space,keypress(Space),,,,,,,,---- -- ----- -- ------ - ------- --- ----------<br>------------- ------ ------ ---- ---- ------- ----- -- ----<br>-------- ------- -- ---------- --- - --- ----- ----- ----<br>---- --- --- ----- --- ---- ---- ------- ----- ---- -------<br>--- --- -- ----- -- --- ---- -- --- ---- -- ------ really<br>--- ----- -- ----,159798.45999999996,159792.73000000013,159379.554,159385.4449999999,159396.22,159812.87,,51,really
screen,html.Screen,2_1_0_1_52,2021-04-26T09:31:55.961Z,,,,,,,,,,,,,,,,,53,,,,,,,,,,,,,,379.6900000004098,,response,,,,99,,,,,,,Space,keypress(Space),,,,,,,,---- -- ----- -- ------ - ------- --- ----------<br>------------- ------ ------ ---- ---- ------- ----- -- ----<br>-------- ------- -- ---------- --- - --- ----- ----- ----<br>---- --- --- ----- --- ---- ---- ------- ----- ---- -------<br>--- --- -- ----- -- --- ---- -- --- ---- -- ------ ------<br>not ----- -- ----,160196.9049999998,160192.5600000004,159796.204,159798.6149999997,159812.87,160212.854,,52,not
screen,html.Screen,2_1_0_1_53,2021-04-26T09:31:56.359Z,,,,,,,,,,,,,,,,,53,,,,,,,,,,,,,,375.9459999995306,,response,,,,99,,,,,,,Space,keypress(Space),,,,,,,,---- -- ----- -- ------ - ------- --- ----------<br>------------- ------ ------ ---- ---- ------- ----- -- ----<br>-------- ------- -- ---------- --- - --- ----- ----- ----<br>---- --- --- ----- --- ---- ---- ------- ----- ---- -------<br>--- --- -- ----- -- --- ---- -- --- ---- -- ------ ------<br>--- close -- ----,160594.57999999996,160588.79999999952,160196.188,160196.99500000023,160212.854,160612.838,,53,close
screen,html.Screen,2_1_0_1_54,2021-04-26T09:31:56.775Z,,,,,,,,,,,,,,,,,53,,,,,,,,,,,,,,391.8519999997807,,response,,,,99,,,,,,,Space,keypress(Space),,,,,,,,---- -- ----- -- ------ - ------- --- ----------<br>------------- ------ ------ ---- ---- ------- ----- -- ----<br>-------- ------- -- ---------- --- - --- ----- ----- ----<br>---- --- --- ----- --- ---- ---- ------- ----- ---- -------<br>--- --- -- ----- -- --- ---- -- --- ---- -- ------ ------<br>--- ----- at ----,161010.52499999967,161004.68999999977,160596.172,160594.6899999999,160612.838,161012.822,,54,at
screen,html.Screen,2_1_0_1_55,2021-04-26T09:31:57.153Z,,,,,,,,,,,,,,,,,53,,,,,,,,,,,,,,369.9180000000342,,response,,,,99,,,,,,,Space,keypress(Space),,,,,,,,---- -- ----- -- ------ - ------- --- ----------<br>------------- ------ ------ ---- ---- ------- ----- -- ----<br>-------- ------- -- ---------- --- - --- ----- ----- ----<br>---- --- --- ----- --- ---- ---- ------- ----- ---- -------<br>--- --- -- ----- -- --- ---- -- --- ---- -- ------ ------<br>--- ----- -- all.,161388.43499999985,161382.74000000002,160996.156,161010.6850000002,161012.822,161390.182,,55,all.
Item 99,flow.Loop,2_1_0_1,2021-04-26T09:31:57.153Z,,,,,,,,,,,,,,,,,,,,,,,,,,,,,,,30916.911000000022,,completion,,,,,A,,,,,,,,,,,silence,,,,,161388.7450000002,161382.74000000002,130449.163,130452.08999999976,130465.829,161390.182,,,
Question 1,html.Screen,2_1_0_2,2021-04-26T09:32:02.795Z,,,,,,,,,,,,,,,,,,,,,,,,,,,,true,FALSE,,5635.978000000352,,response,,,,99,A,,,,,,FALSE,click #choice-2,,,,silence,,,,,167030.18499999962,167026.16000000035,161373.516,161389.3250000001,161390.182,167039.956,,,
Question 2,html.Screen,2_1_0_3,2021-04-26T09:32:18.398Z,,,,,,,,,,,,,,,,,,,,,,,,,,,,true,TRUE,,15588.828999999881,,response,,,,99,A,,,,,,TRUE,click #choice-1,,,,silence,,,,,182632.82999999955,182628.7849999999,167023.29,167030.35999999975,167039.956,182637.398,,,
Item 99,flow.Sequence,2_1_0,2021-04-26T09:32:18.398Z,,,,,,,,,,,,,,,,,,,,,,,,,,,,,,,62169.03399999988,,completion,,,,,,,,,,,,,,,,,,,,,182633.07499999972,182628.7849999999,120443.085,120455.83499999976,120459.751,182637.398,,,
Holding screen,html.Screen,2_1_1_0,2021-04-26T09:32:28.383Z,,,,,,,,,,,,,,,,,,,,,,,,,,,,,,,9994.345000000001,,timeout,,,,,,,,,,,,,,,,,,,,,192617.37999999968,192615.077,182620.732,182633.2400000001,182637.398,192631.743,,,
screen,html.Screen,2_1_1_1_0,2021-04-26T09:32:29.169Z,,,,,,,,,,,,,,,,,54,,,,,,,,,,,,,,763.6819999997097,,response,,,,100,,,,,,,Space,keypress(Space),,,,,,,,At --- ---- --- ------ ----- ------- ---- -- --- ------- --<br>------- ---------- ------ -- ----- -- ----- -- ---- ------<br>--- ----- --- --- ------ -------- ----- --- ------ ----- --<br>----- ----- ---------- --- --- ------ ------ ---- -- ------<br>------- --- ------ ----- --- ---- ------- -- ---- --- --<br>------- ------,193404.04000000036,193395.4249999997,192615.077,192617.6150000001,192631.743,193415.045,,0,At
screen,html.Screen,2_1_1_1_1,2021-04-26T09:32:29.651Z,,,,,,,,,,,,,,,,,54,,,,,,,,,,,,,,465.2999999995518,,response,,,,100,,,,,,,Space,keypress(Space),,,,,,,,-- the ---- --- ------ ----- ------- ---- -- --- ------- --<br>------- ---------- ------ -- ----- -- ----- -- ---- ------<br>--- ----- --- --- ------ -------- ----- --- ------ ----- --<br>----- ----- ---------- --- --- ------ ------ ---- -- ------<br>------- --- ------ ----- --- ---- ------- -- ---- --- --<br>------- ------,193886.1649999999,193880.34499999956,193398.379,193404.13499999978,193415.045,193900.07,,1,the
screen,html.Screen,2_1_1_1_2,2021-04-26T09:32:30.206Z,,,,,,,,,,,,,,,,,54,,,,,,,,,,,,,,535.2349999999569,,response,,,,100,,,,,,,Space,keypress(Space),,,,,,,,-- --- time --- ------ ----- ------- ---- -- --- ------- --<br>------- ---------- ------ -- ----- -- ----- -- ---- ------<br>--- ----- --- --- ------ -------- ----- --- ------ ----- --<br>----- ----- ---------- --- --- ------ ------ ---- -- ------<br>------- --- ------ ----- --- ---- ------- -- ---- --- --<br>------- ------,194440.95500000002,194435.30499999996,193883.404,193886.3250000004,193900.07,194450.048,,2,time
screen,html.Screen,2_1_1_1_3,2021-04-26T09:32:30.741Z,,,,,,,,,,,,,,,,,54,,,,,,,,,,,,,,520.2519999999495,,response,,,,100,,,,,,,Space,keypress(Space),,,,,,,,-- --- ---- the ------ ----- ------- ---- -- --- ------- --<br>------- ---------- ------ -- ----- -- ----- -- ---- ------<br>--- ----- --- --- ------ -------- ----- --- ------ ----- --<br>----- ----- ---------- --- --- ------ ------ ---- -- ------<br>------- --- ------ ----- --- ---- ------- -- ---- --- --<br>------- ------,194976.1150000004,194970.29999999996,194433.382,194441.10999999975,194450.048,194983.36,,3,the
screen,html.Screen,2_1_1_1_4,2021-04-26T09:32:31.379Z,,,,,,,,,,,,,,,,,54,,,,,,,,,,,,,,624.9300000001385,,response,,,,100,,,,,,,Space,keypress(Space),,,,,,,,-- --- ---- --- French ----- ------- ---- -- --- ------- --<br>------- ---------- ------ -- ----- -- ----- -- ---- ------<br>--- ----- --- --- ------ -------- ----- --- ------ ----- --<br>----- ----- ---------- --- --- ------ ------ ---- -- ------<br>------- --- ------ ----- --- ---- ------- -- ---- --- --<br>------- ------,195614.02499999985,195608.29000000012,194966.694,194976.275,194983.36,195616.668,,4,French
screen,html.Screen,2_1_1_1_5,2021-04-26T09:32:31.925Z,,,,,,,,,,,,,,,,,54,,,,,,,,,,,,,,537.6069999998726,,response,,,,100,,,,,,,Space,keypress(Space),,,,,,,,-- --- ---- --- ------ crown ------- ---- -- --- ------- --<br>------- ---------- ------ -- ----- -- ----- -- ---- ------<br>--- ----- --- --- ------ -------- ----- --- ------ ----- --<br>----- ----- ---------- --- --- ------ ------ ---- -- ------<br>------- --- ------ ----- --- ---- ------- -- ---- --- --<br>------- ------,196159.89999999964,196154.27499999988,195600.002,195614.18500000035,195616.668,196166.646,,5,crown
screen,html.Screen,2_1_1_1_6,2021-04-26T09:32:32.556Z,,,,,,,,,,,,,,,,,54,,,,,,,,,,,,,,618.6089999997639,,response,,,,100,,,,,,,Space,keypress(Space),,,,,,,,-- --- ---- --- ------ ----- secured ---- -- --- ------- --<br>------- ---------- ------ -- ----- -- ----- -- ---- ------<br>--- ----- --- --- ------ -------- ----- --- ------ ----- --<br>----- ----- ---------- --- --- ------ ------ ---- -- ------<br>------- --- ------ ----- --- ---- ------- -- ---- --- --<br>------- ------,196790.80499999964,196785.25499999977,196149.98,196160.06000000017,196166.646,196799.954,,6,secured
screen,html.Screen,2_1_1_1_7,2021-04-26T09:32:33.283Z,,,,,,,,,,,,,,,,,54,,,,,,,,,,,,,,712.2810000001627,,response,,,,100,,,,,,,Space,keypress(Space),,,,,,,,-- --- ---- --- ------ ----- ------- much -- --- ------- --<br>------- ---------- ------ -- ----- -- ----- -- ---- ------<br>--- ----- --- --- ------ -------- ----- --- ------ ----- --<br>----- ----- ---------- --- --- ------ ------ ---- -- ------<br>------- --- ------ ----- --- ---- ------- -- ---- --- --<br>------- ------,197517.86999999968,197512.23500000016,196783.288,196790.96000000025,196799.954,197533.258,,7,much
screen,html.Screen,2_1_1_1_8,2021-04-26T09:32:33.804Z,,,,,,,,,,,,,,,,,54,,,,,,,,,,,,,,500.0869999998249,,response,,,,100,,,,,,,Space,keypress(Space),,,,,,,,-- --- ---- --- ------ ----- ------- ---- of --- ------- --<br>------- ---------- ------ -- ----- -- ----- -- ---- ------<br>--- ----- --- --- ------ -------- ----- --- ------ ----- --<br>----- ----- ---------- --- --- ------ ------ ---- -- ------<br>------- --- ------ ----- --- ---- ------- -- ---- --- --<br>------- ------,198038.9150000001,198033.34499999983,197516.592,197518.0250000003,197533.258,198049.904,,8,of
screen,html.Screen,2_1_1_1_9,2021-04-26T09:32:34.426Z,,,,,,,,,,,,,,,,,54,,,,,,,,,,,,,,605.3310000001511,,response,,,,100,,,,,,,Space,keypress(Space),,,,,,,,-- --- ---- --- ------ ----- ------- ---- -- its ------- --<br>------- ---------- ------ -- ----- -- ----- -- ---- ------<br>--- ----- --- --- ------ -------- ----- --- ------ ----- --<br>----- ----- ---------- --- --- ------ ------ ---- -- ------<br>------- --- ------ ----- --- ---- ------- -- ---- --- --<br>------- ------,198660.96000000017,198655.23500000016,198033.238,198039.0699999998,198049.904,198666.546,,9,its
screen,html.Screen,2_1_1_1_10,2021-04-26T09:32:35.075Z,,,,,,,,,,,,,,,,,54,,,,,,,,,,,,,,636.6940000001923,,response,,,,100,,,,,,,Space,keypress(Space),,,,,,,,-- --- ---- --- ------ ----- ------- ---- -- --- revenue --<br>------- ---------- ------ -- ----- -- ----- -- ---- ------<br>--- ----- --- --- ------ -------- ----- --- ------ ----- --<br>----- ----- ---------- --- --- ------ ------ ---- -- ------<br>------- --- ------ ----- --- ---- ------- -- ---- --- --<br>------- ------,199309.06500000038,199303.2400000002,198649.88,198661.11999999976,198666.546,199316.52,,10,revenue
screen,html.Screen,2_1_1_1_11,2021-04-26T09:32:35.662Z,,,,,,,,,,,,,,,,,54,,,,,,,,,,,,,,574.6899999997986,,response,,,,100,,,,,,,Space,keypress(Space),,,,,,,,-- --- ---- --- ------ ----- ------- ---- -- --- ------- by<br>------- ---------- ------ -- ----- -- ----- -- ---- ------<br>--- ----- --- --- ------ -------- ----- --- ------ ----- --<br>----- ----- ---------- --- --- ------ ------ ---- -- ------<br>------- --- ------ ----- --- ---- ------- -- ---- --- --<br>------- ------,199896.8450000002,199891.2099999998,199299.854,199309.22499999998,199316.52,199899.83,,11,by
screen,html.Screen,2_1_1_1_12,2021-04-26T09:32:36.456Z,,,,,,,,,,,,,,,,,54,,,,,,,,,,,,,,783.4599999999627,,response,,,,100,,,,,,,Space,keypress(Space),,,,,,,,-- --- ---- --- ------ ----- ------- ---- -- --- ------- --<br>issuing ---------- ------ -- ----- -- ----- -- ---- ------<br>--- ----- --- --- ------ -------- ----- --- ------ ----- --<br>----- ----- ---------- --- --- ------ ------ ---- -- ------<br>------- --- ------ ----- --- ---- ------- -- ---- --- --<br>------- ------,200690.05000000016,200683.28999999995,199883.164,199896.99999999994,199899.83,200699.798,,12,issuing
screen,html.Screen,2_1_1_1_13,2021-04-26T09:32:37.355Z,,,,,,,,,,,,,,,,,54,,,,,,,,,,,,,,884.23199999996,,response,,,,100,,,,,,,Space,keypress(Space),,,,,,,,-- --- ---- --- ------ ----- ------- ---- -- --- ------- --<br>------- government ------ -- ----- -- ----- -- ---- ------<br>--- ----- --- --- ------ -------- ----- --- ------ ----- --<br>----- ----- ---------- --- --- ------ ------ ---- -- ------<br>------- --- ------ ----- --- ---- ------- -- ---- --- --<br>------- ------,201589.5700000001,201584.02999999997,200683.132,200690.15500000023,200699.798,201599.762,,13,government
screen,html.Screen,2_1_1_1_14,2021-04-26T09:32:38.601Z,,,,,,,,,,,,,,,,,54,,,,,,,,,,,,,,1230.3630000004196,,response,,,,100,,,,,,,Space,keypress(Space),,,,,,,,-- --- ---- --- ------ ----- ------- ---- -- --- ------- --<br>------- ---------- bonds. -- ----- -- ----- -- ---- ------<br>--- ----- --- --- ------ -------- ----- --- ------ ----- --<br>----- ----- ---------- --- --- ------ ------ ---- -- ------<br>------- --- ------ ----- --- ---- ------- -- ---- --- --<br>------- ------,202835.75000000017,202830.1250000004,201583.096,201589.7299999997,201599.762,202849.712,,14,bonds.
screen,html.Screen,2_1_1_1_15,2021-04-26T09:32:39.196Z,,,,,,,,,,,,,,,,,54,,,,,,,,,,,,,,573.3830000000889,,response,,,,100,,,,,,,Space,keypress(Space),,,,,,,,-- --- ---- --- ------ ----- ------- ---- -- --- ------- --<br>------- ---------- ------ In ----- -- ----- -- ---- ------<br>--- ----- --- --- ------ -------- ----- --- ------ ----- --<br>----- ----- ---------- --- --- ------ ------ ---- -- ------<br>------- --- ------ ----- --- ---- ------- -- ---- --- --<br>------- ------,203430.07500000022,203423.0950000001,202833.046,202835.9099999998,202849.712,203433.022,,15,In
screen,html.Screen,2_1_1_1_16,2021-04-26T09:32:40.203Z,,,,,,,,,,,,,,,,,54,,,,,,,,,,,,,,998.0930000003136,,response,,,,100,,,,,,,Space,keypress(Space),,,,,,,,"-- --- ---- --- ------ ----- ------- ---- -- --- ------- --<br>------- ---------- ------ -- 1727, -- ----- -- ---- ------<br>--- ----- --- --- ------ -------- ----- --- ------ ----- --<br>----- ----- ---------- --- --- ------ ------ ---- -- ------<br>------- --- ------ ----- --- ---- ------- -- ---- --- --<br>------- ------",204437.7199999999,204431.1150000003,203416.356,203430.22999999992,203433.022,204442.49,,16,"1727,"
screen,html.Screen,2_1_1_1_17,2021-04-26T09:32:40.804Z,,,,,,,,,,,,,,,,,54,,,,,,,,,,,,,,589.7499999995634,,response,,,,100,,,,,,,Space,keypress(Space),,,,,,,,-- --- ---- --- ------ ----- ------- ---- -- --- ------- --<br>------- ---------- ------ -- ----- in ----- -- ---- ------<br>--- ----- --- --- ------ -------- ----- --- ------ ----- --<br>----- ----- ---------- --- --- ------ ------ ---- -- ------<br>------- --- ------ ----- --- ---- ------- -- ---- --- --<br>------- ------,205038.01500000007,205032.23999999955,204425.824,204437.82999999984,204442.49,205042.466,,17,in
screen,html.Screen,2_1_1_1_18,2021-04-26T09:32:41.338Z,,,,,,,,,,,,,,,,,54,,,,,,,,,,,,,,523.5940000001283,,response,,,,100,,,,,,,Space,keypress(Space),,,,,,,,-- --- ---- --- ------ ----- ------- ---- -- --- ------- --<br>------- ---------- ------ -- ----- -- order -- ---- ------<br>--- ----- --- --- ------ -------- ----- --- ------ ----- --<br>----- ----- ---------- --- --- ------ ------ ---- -- ------<br>------- --- ------ ----- --- ---- ------- -- ---- --- --<br>------- ------,205572.39000000028,205566.0600000001,205025.8,205038.1749999997,205042.466,205575.778,,18,order
screen,html.Screen,2_1_1_1_19,2021-04-26T09:32:41.753Z,,,,,,,,,,,,,,,,,54,,,,,,,,,,,,,,405.4369999998016,,response,,,,100,,,,,,,Space,keypress(Space),,,,,,,,-- --- ---- --- ------ ----- ------- ---- -- --- ------- --<br>------- ---------- ------ -- ----- -- ----- to ---- ------<br>--- ----- --- --- ------ -------- ----- --- ------ ----- --<br>----- ----- ---------- --- --- ------ ------ ---- -- ------<br>------- --- ------ ----- --- ---- ------- -- ---- --- --<br>------- ------,205986.89999999988,205981.2149999998,205559.112,205572.54999999987,205575.778,205992.428,,19,to
screen,html.Screen,2_1_1_1_20,2021-04-26T09:32:42.274Z,,,,,,,,,,,,,,,,,54,,,,,,,,,,,,,,509.64700000031735,,response,,,,100,,,,,,,Space,keypress(Space),,,,,,,,-- --- ---- --- ------ ----- ------- ---- -- --- ------- --<br>------- ---------- ------ -- ----- -- ----- -- save ------<br>--- ----- --- --- ------ -------- ----- --- ------ ----- --<br>----- ----- ---------- --- --- ------ ------ ---- -- ------<br>------- --- ------ ----- --- ---- ------- -- ---- --- --<br>------- ------,206507.86499999958,206502.07500000033,205975.762,205987.06500000026,205992.428,206509.074,,20,save
screen,html.Screen,2_1_1_1_21,2021-04-26T09:32:42.905Z,,,,,,,,,,,,,,,,,54,,,,,,,,,,,,,,624.1310000000813,,response,,,,100,,,,,,,Space,keypress(Space),,,,,,,,"-- --- ---- --- ------ ----- ------- ---- -- --- ------- --<br>------- ---------- ------ -- ----- -- ----- -- ---- money,<br>--- ----- --- --- ------ -------- ----- --- ------ ----- --<br>----- ----- ---------- --- --- ------ ------ ---- -- ------<br>------- --- ------ ----- --- ---- ------- -- ---- --- --<br>------- ------",207138.96000000022,207133.20500000007,206492.408,206508.02000000022,206509.074,207142.382,,21,"money,"
screen,html.Screen,2_1_1_1_22,2021-04-26T09:32:43.423Z,,,,,,,,,,,,,,,,,54,,,,,,,,,,,,,,509.7180000002263,,response,,,,100,,,,,,,Space,keypress(Space),,,,,,,,-- --- ---- --- ------ ----- ------- ---- -- --- ------- --<br>------- ---------- ------ -- ----- -- ----- -- ---- ------<br>the ----- --- --- ------ -------- ----- --- ------ ----- --<br>----- ----- ---------- --- --- ------ ------ ---- -- ------<br>------- --- ------ ----- --- ---- ------- -- ---- --- --<br>------- ------,207657.77499999967,207652.10000000024,207125.716,207139.11499999993,207142.382,207659.028,,22,the
screen,html.Screen,2_1_1_1_23,2021-04-26T09:32:43.956Z,,,,,,,,,,,,,,,,,54,,,,,,,,,,,,,,526.0619999999471,,response,,,,100,,,,,,,Space,keypress(Space),,,,,,,,-- --- ---- --- ------ ----- ------- ---- -- --- ------- --<br>------- ---------- ------ -- ----- -- ----- -- ---- ------<br>--- state --- --- ------ -------- ----- --- ------ ----- --<br>----- ----- ---------- --- --- ------ ------ ---- -- ------<br>------- --- ------ ----- --- ---- ------- -- ---- --- --<br>------- ------,208190.73500000013,208185.08999999994,207642.362,207657.9300000003,207659.028,208192.34,,23,state
screen,html.Screen,2_1_1_1_24,2021-04-26T09:32:44.501Z,,,,,,,,,,,,,,,,,54,,,,,,,,,,,,,,537.5749999998952,,response,,,,100,,,,,,,Space,keypress(Space),,,,,,,,-- --- ---- --- ------ ----- ------- ---- -- --- ------- --<br>------- ---------- ------ -- ----- -- ----- -- ---- ------<br>--- ----- cut --- ------ -------- ----- --- ------ ----- --<br>----- ----- ---------- --- --- ------ ------ ---- -- ------<br>------- --- ------ ----- --- ---- ------- -- ---- --- --<br>------- ------,208735.54499999955,208729.9149999999,208175.674,208190.89499999973,208192.34,208742.318,,24,cut
screen,html.Screen,2_1_1_1_25,2021-04-26T09:32:45.055Z,,,,,,,,,,,,,,,,,54,,,,,,,,,,,,,,541.7469999998284,,response,,,,100,,,,,,,Space,keypress(Space),,,,,,,,-- --- ---- --- ------ ----- ------- ---- -- --- ------- --<br>------- ---------- ------ -- ----- -- ----- -- ---- ------<br>--- ----- --- the ------ -------- ----- --- ------ ----- --<br>----- ----- ---------- --- --- ------ ------ ---- -- ------<br>------- --- ------ ----- --- ---- ------- -- ---- --- --<br>------- ------,209289.7499999999,209284.06499999983,208725.652,208735.70500000005,208742.318,209292.296,,25,the
screen,html.Screen,2_1_1_1_26,2021-04-26T09:32:45.624Z,,,,,,,,,,,,,,,,,54,,,,,,,,,,,,,,558.7289999999339,,response,,,,100,,,,,,,Space,keypress(Space),,,,,,,,-- --- ---- --- ------ ----- ------- ---- -- --- ------- --<br>------- ---------- ------ -- ----- -- ----- -- ---- ------<br>--- ----- --- --- bonds' -------- ----- --- ------ ----- --<br>----- ----- ---------- --- --- ------ ------ ---- -- ------<br>------- --- ------ ----- --- ---- ------- -- ---- --- --<br>------- ------,209858.2150000002,209851.02499999994,209275.63,209289.90499999962,209292.296,209875.606,,26,bonds'
screen,html.Screen,2_1_1_1_27,2021-04-26T09:32:46.124Z,,,,,,,,,,,,,,,,,54,,,,,,,,,,,,,,477.4039999998058,,response,,,,100,,,,,,,Space,keypress(Space),,,,,,,,-- --- ---- --- ------ ----- ------- ---- -- --- ------- --<br>------- ---------- ------ -- ----- -- ----- -- ---- ------<br>--- ----- --- --- ------ interest ----- --- ------ ----- --<br>----- ----- ---------- --- --- ------ ------ ---- -- ------<br>------- --- ------ ----- --- ---- ------- -- ---- --- --<br>------- ------,210358.70499999964,210353.0099999998,209858.94,209858.40000000008,209875.606,210375.586,,27,interest
screen,html.Screen,2_1_1_1_28,2021-04-26T09:32:46.633Z,,,,,,,,,,,,,,,,,54,,,,,,,,,,,,,,486.4539999999688,,response,,,,100,,,,,,,Space,keypress(Space),,,,,,,,-- --- ---- --- ------ ----- ------- ---- -- --- ------- --<br>------- ---------- ------ -- ----- -- ----- -- ---- ------<br>--- ----- --- --- ------ -------- rate. --- ------ ----- --<br>----- ----- ---------- --- --- ------ ------ ---- -- ------<br>------- --- ------ ----- --- ---- ------- -- ---- --- --<br>------- ------,210867.68500000017,210862.03999999998,210358.92,210358.86000000028,210375.586,210875.566,,28,rate.
screen,html.Screen,2_1_1_1_29,2021-04-26T09:32:47.151Z,,,,,,,,,,,,,,,,,54,,,,,,,,,,,,,,503.55900000038673,,response,,,,100,,,,,,,Space,keypress(Space),,,,,,,,-- --- ---- --- ------ ----- ------- ---- -- --- ------- --<br>------- ---------- ------ -- ----- -- ----- -- ---- ------<br>--- ----- --- --- ------ -------- ----- The ------ ----- --<br>----- ----- ---------- --- --- ------ ------ ---- -- ------<br>------- --- ------ ----- --- ---- ------- -- ---- --- --<br>------- ------,211384.98999999955,211379.12500000038,210858.9,210867.83999999988,210875.566,211392.212,,29,The
screen,html.Screen,2_1_1_1_30,2021-04-26T09:32:47.615Z,,,,,,,,,,,,,,,,,54,,,,,,,,,,,,,,450.81300000014016,,response,,,,100,,,,,,,Space,keypress(Space),,,,,,,,-- --- ---- --- ------ ----- ------- ---- -- --- ------- --<br>------- ---------- ------ -- ----- -- ----- -- ---- ------<br>--- ----- --- --- ------ -------- ----- --- market ----- --<br>----- ----- ---------- --- --- ------ ------ ---- -- ------<br>------- --- ------ ----- --- ---- ------- -- ---- --- --<br>------- ------,211848.71999999997,211843.02500000014,211375.546,211385.15000000008,211392.212,211858.86,,30,market
screen,html.Screen,2_1_1_1_31,2021-04-26T09:32:48.072Z,,,,,,,,,,,,,,,,,54,,,,,,,,,,,,,,441.11000000004424,,response,,,,100,,,,,,,Space,keypress(Space),,,,,,,,-- --- ---- --- ------ ----- ------- ---- -- --- ------- --<br>------- ---------- ------ -- ----- -- ----- -- ---- ------<br>--- ----- --- --- ------ -------- ----- --- ------ value --<br>----- ----- ---------- --- --- ------ ------ ---- -- ------<br>------- --- ------ ----- --- ---- ------- -- ---- --- --<br>------- ------,212305.8199999996,212299.97000000003,211842.194,211848.87999999954,211858.86,212308.842,,31,value
screen,html.Screen,2_1_1_1_32,2021-04-26T09:32:48.680Z,,,,,,,,,,,,,,,,,54,,,,,,,,,,,,,,599.1779999998398,,response,,,,100,,,,,,,Space,keypress(Space),,,,,,,,-- --- ---- --- ------ ----- ------- ---- -- --- ------- --<br>------- ---------- ------ -- ----- -- ----- -- ---- ------<br>--- ----- --- --- ------ -------- ----- --- ------ ----- of<br>----- ----- ---------- --- --- ------ ------ ---- -- ------<br>------- --- ------ ----- --- ---- ------- -- ---- --- --<br>------- ------,212913.73999999996,212908.01999999984,212292.176,212305.9800000001,212308.842,212925.484,,32,of
screen,html.Screen,2_1_1_1_33,2021-04-26T09:32:49.390Z,,,,,,,,,,,,,,,,,54,,,,,,,,,,,,,,691.5460000003513,,response,,,,100,,,,,,,Space,keypress(Space),,,,,,,,-- --- ---- --- ------ ----- ------- ---- -- --- ------- --<br>------- ---------- ------ -- ----- -- ----- -- ---- ------<br>--- ----- --- --- ------ -------- ----- --- ------ ----- --<br>these ----- ---------- --- --- ------ ------ ---- -- ------<br>------- --- ------ ----- --- ---- ------- -- ---- --- --<br>------- ------,213624.1799999998,213617.03000000035,212908.818,212913.89499999967,212925.484,213642.122,,33,these
screen,html.Screen,2_1_1_1_34,2021-04-26T09:32:49.900Z,,,,,,,,,,,,,,,,,54,,,,,,,,,,,,,,486.6430000003893,,response,,,,100,,,,,,,Space,keypress(Space),,,,,,,,-- --- ---- --- ------ ----- ------- ---- -- --- ------- --<br>------- ---------- ------ -- ----- -- ----- -- ---- ------<br>--- ----- --- --- ------ -------- ----- --- ------ ----- --<br>----- bonds ---------- --- --- ------ ------ ---- -- ------<br>------- --- ------ ----- --- ---- ------- -- ---- --- --<br>------- ------,214134.2850000001,214128.7650000004,213625.456,213624.28999999975,213642.122,214136.814,,34,bonds
screen,html.Screen,2_1_1_1_35,2021-04-26T09:32:50.271Z,,,,,,,,,,,,,,,,,54,,,,,,,,,,,,,,362.2760000002454,,response,,,,100,,,,,,,Space,keypress(Space),,,,,,,,"-- --- ---- --- ------ ----- ------- ---- -- --- ------- --<br>------- ---------- ------ -- ----- -- ----- -- ---- ------<br>--- ----- --- --- ------ -------- ----- --- ------ ----- --<br>----- ----- plummeted, --- --- ------ ------ ---- -- ------<br>------- --- ------ ----- --- ---- ------- -- ---- --- --<br>------- ------",214505.0650000003,214499.09000000026,214120.148,214134.43999999983,214136.814,214520.132,,35,"plummeted,"
screen,html.Screen,2_1_1_1_36,2021-04-26T09:32:50.860Z,,,,,,,,,,,,,,,,,54,,,,,,,,,,,,,,567.8430000003718,,response,,,,100,,,,,,,Space,keypress(Space),,,,,,,,-- --- ---- --- ------ ----- ------- ---- -- --- ------- --<br>------- ---------- ------ -- ----- -- ----- -- ---- ------<br>--- ----- --- --- ------ -------- ----- --- ------ ----- --<br>----- ----- ---------- and --- ------ ------ ---- -- ------<br>------- --- ------ ----- --- ---- ------- -- ---- --- --<br>------- ------,215093.8100000003,215087.97500000038,214503.466,214505.2249999999,214520.132,215103.442,,36,and
screen,html.Screen,2_1_1_1_37,2021-04-26T09:32:51.273Z,,,,,,,,,,,,,,,,,54,,,,,,,,,,,,,,397.6280000002298,,response,,,,100,,,,,,,Space,keypress(Space),,,,,,,,-- --- ---- --- ------ ----- ------- ---- -- --- ------- --<br>------- ---------- ------ -- ----- -- ----- -- ---- ------<br>--- ----- --- --- ------ -------- ----- --- ------ ----- --<br>----- ----- ---------- --- the ------ ------ ---- -- ------<br>------- --- ------ ----- --- ---- ------- -- ---- --- --<br>------- ------,215506.8199999996,215501.07000000024,215086.776,215093.9699999999,215103.442,215520.092,,37,the
screen,html.Screen,2_1_1_1_38,2021-04-26T09:32:51.552Z,,,,,,,,,,,,,,,,,54,,,,,,,,,,,,,,259.96300000016345,,response,,,,100,,,,,,,Space,keypress(Space),,,,,,,,-- --- ---- --- ------ ----- ------- ---- -- --- ------- --<br>------- ---------- ------ -- ----- -- ----- -- ---- ------<br>--- ----- --- --- ------ -------- ----- --- ------ ----- --<br>----- ----- ---------- --- --- market ------ ---- -- ------<br>------- --- ------ ----- --- ---- ------- -- ---- --- --<br>------- ------,215785.78500000003,215780.05500000017,215503.426,215506.985,215520.092,215803.414,,38,market
screen,html.Screen,2_1_1_1_39,2021-04-26T09:32:52.068Z,,,,,,,,,,,,,,,,,54,,,,,,,,,,,,,,492.64099999979953,,response,,,,100,,,,,,,Space,keypress(Space),,,,,,,,-- --- ---- --- ------ ----- ------- ---- -- --- ------- --<br>------- ---------- ------ -- ----- -- ----- -- ---- ------<br>--- ----- --- --- ------ -------- ----- --- ------ ----- --<br>----- ----- ---------- --- --- ------ became ---- -- ------<br>------- --- ------ ----- --- ---- ------- -- ---- --- --<br>------- ------,216301.99499999982,216296.0549999998,215786.748,215785.93999999977,215803.414,216303.394,,39,became
screen,html.Screen,2_1_1_1_40,2021-04-26T09:32:52.539Z,,,,,,,,,,,,,,,,,54,,,,,,,,,,,,,,463.56100000004517,,response,,,,100,,,,,,,Space,keypress(Space),,,,,,,,-- --- ---- --- ------ ----- ------- ---- -- --- ------- --<br>------- ---------- ------ -- ----- -- ----- -- ---- ------<br>--- ----- --- --- ------ -------- ----- --- ------ ----- --<br>----- ----- ---------- --- --- ------ ------ wary -- ------<br>------- --- ------ ----- --- ---- ------- -- ---- --- --<br>------- ------,216772.74000000034,216766.95500000005,216286.728,216302.15500000032,216303.394,216786.708,,40,wary
screen,html.Screen,2_1_1_1_41,2021-04-26T09:32:53.000Z,,,,,,,,,,,,,,,,,54,,,,,,,,,,,,,,441.36200000011013,,response,,,,100,,,,,,,Space,keypress(Space),,,,,,,,-- --- ---- --- ------ ----- ------- ---- -- --- ------- --<br>------- ---------- ------ -- ----- -- ----- -- ---- ------<br>--- ----- --- --- ------ -------- ----- --- ------ ----- --<br>----- ----- ---------- --- --- ------ ------ ---- of ------<br>------- --- ------ ----- --- ---- ------- -- ---- --- --<br>------- ------,217233.93000000034,217228.07000000012,216770.042,216772.9049999998,216786.708,217236.69,,41,of
screen,html.Screen,2_1_1_1_42,2021-04-26T09:32:53.450Z,,,,,,,,,,,,,,,,,54,,,,,,,,,,,,,,441.24999999959255,,response,,,,100,,,,,,,Space,keypress(Space),,,,,,,,-- --- ---- --- ------ ----- ------- ---- -- --- ------- --<br>------- ---------- ------ -- ----- -- ----- -- ---- ------<br>--- ----- --- --- ------ -------- ----- --- ------ ----- --<br>----- ----- ---------- --- --- ------ ------ ---- -- French<br>------- --- ------ ----- --- ---- ------- -- ---- --- --<br>------- ------,217683.79999999978,217677.9399999996,217220.024,217234.0899999999,217236.69,217686.672,,42,French
screen,html.Screen,2_1_1_1_43,2021-04-26T09:32:53.800Z,,,,,,,,,,,,,,,,,54,,,,,,,,,,,,,,341.2180000003136,,response,,,,100,,,,,,,Space,keypress(Space),,,,,,,,-- --- ---- --- ------ ----- ------- ---- -- --- ------- --<br>------- ---------- ------ -- ----- -- ----- -- ---- ------<br>--- ----- --- --- ------ -------- ----- --- ------ ----- --<br>----- ----- ---------- --- --- ------ ------ ---- -- ------<br>credit. --- ------ ----- --- ---- ------- -- ---- --- --<br>------- ------,218033.52499999982,218027.8900000003,217670.006,217684.16999999955,217686.672,218036.658,,43,credit.
screen,html.Screen,2_1_1_1_44,2021-04-26T09:32:54.270Z,,,,,,,,,,,,,,,,,54,,,,,,,,,,,,,,461.27199999953154,,response,,,,100,,,,,,,Space,keypress(Space),,,,,,,,-- --- ---- --- ------ ----- ------- ---- -- --- ------- --<br>------- ---------- ------ -- ----- -- ----- -- ---- ------<br>--- ----- --- --- ------ -------- ----- --- ------ ----- --<br>----- ----- ---------- --- --- ------ ------ ---- -- ------<br>------- The ------ ----- --- ---- ------- -- ---- --- --<br>------- ------,218503.67999999982,218497.92999999953,218019.992,218033.68500000035,218036.658,218519.972,,44,The
screen,html.Screen,2_1_1_1_45,2021-04-26T09:32:54.601Z,,,,,,,,,,,,,,,,,54,,,,,,,,,,,,,,308.957999999664,,response,,,,100,,,,,,,Space,keypress(Space),,,,,,,,-- --- ---- --- ------ ----- ------- ---- -- --- ------- --<br>------- ---------- ------ -- ----- -- ----- -- ---- ------<br>--- ----- --- --- ------ -------- ----- --- ------ ----- --<br>----- ----- ---------- --- --- ------ ------ ---- -- ------<br>------- --- French ----- --- ---- ------- -- ---- --- --<br>------- ------,218834.7649999996,218828.92999999967,218503.306,218503.84000000032,218519.972,218836.626,,45,French
screen,html.Screen,2_1_1_1_46,2021-04-26T09:32:54.901Z,,,,,,,,,,,,,,,,,54,,,,,,,,,,,,,,292.3839999996708,,response,,,,100,,,,,,,Space,keypress(Space),,,,,,,,-- --- ---- --- ------ ----- ------- ---- -- --- ------- --<br>------- ---------- ------ -- ----- -- ----- -- ---- ------<br>--- ----- --- --- ------ -------- ----- --- ------ ----- --<br>----- ----- ---------- --- --- ------ ------ ---- -- ------<br>------- --- ------ state --- ---- ------- -- ---- --- --<br>------- ------,219134.74000000043,219129.00999999966,218819.96,218834.9250000001,218836.626,219136.614,,46,state
screen,html.Screen,2_1_1_1_47,2021-04-26T09:32:55.354Z,,,,,,,,,,,,,,,,,54,,,,,,,,,,,,,,445.3009999997448,,response,,,,100,,,,,,,Space,keypress(Space),,,,,,,,-- --- ---- --- ------ ----- ------- ---- -- --- ------- --<br>------- ---------- ------ -- ----- -- ----- -- ---- ------<br>--- ----- --- --- ------ -------- ----- --- ------ ----- --<br>----- ----- ---------- --- --- ------ ------ ---- -- ------<br>------- --- ------ ----- was ---- ------- -- ---- --- --<br>------- ------,219587.49499999976,219581.91499999975,219119.948,219134.90000000002,219136.614,219603.262,,47,was
screen,html.Screen,2_1_1_1_48,2021-04-26T09:32:55.791Z,,,,,,,,,,,,,,,,,54,,,,,,,,,,,,,,415.7330000003567,,response,,,,100,,,,,,,Space,keypress(Space),,,,,,,,-- --- ---- --- ------ ----- ------- ---- -- --- ------- --<br>------- ---------- ------ -- ----- -- ----- -- ---- ------<br>--- ----- --- --- ------ -------- ----- --- ------ ----- --<br>----- ----- ---------- --- --- ------ ------ ---- -- ------<br>------- --- ------ ----- --- left ------- -- ---- --- --<br>------- ------,220024.80500000002,220018.99500000034,219586.596,219587.65500000026,219603.262,220036.578,,48,left
screen,html.Screen,2_1_1_1_49,2021-04-26T09:32:56.204Z,,,,,,,,,,,,,,,,,54,,,,,,,,,,,,,,395.3219999995781,,response,,,,100,,,,,,,Space,keypress(Space),,,,,,,,-- --- ---- --- ------ ----- ------- ---- -- --- ------- --<br>------- ---------- ------ -- ----- -- ----- -- ---- ------<br>--- ----- --- --- ------ -------- ----- --- ------ ----- --<br>----- ----- ---------- --- --- ------ ------ ---- -- ------<br>------- --- ------ ----- --- ---- without -- ---- --- --<br>------- ------,220437.96999999994,220431.8999999996,220019.912,220024.96499999962,220036.578,220453.228,,49,without
screen,html.Screen,2_1_1_1_50,2021-04-26T09:32:56.627Z,,,,,,,,,,,,,,,,,54,,,,,,,,,,,,,,401.75699999992503,,response,,,,100,,,,,,,Space,keypress(Space),,,,,,,,-- --- ---- --- ------ ----- ------- ---- -- --- ------- --<br>------- ---------- ------ -- ----- -- ----- -- ---- ------<br>--- ----- --- --- ------ -------- ----- --- ------ ----- --<br>----- ----- ---------- --- --- ------ ------ ---- -- ------<br>------- --- ------ ----- --- ---- ------- an ---- --- --<br>------- ------,220860.64499999976,220854.98499999993,220436.562,220438.6999999997,220453.228,220869.878,,50,an
screen,html.Screen,2_1_1_1_51,2021-04-26T09:32:57.034Z,,,,,,,,,,,,,,,,,54,,,,,,,,,,,,,,392.6919999998645,,response,,,,100,,,,,,,Space,keypress(Space),,,,,,,,-- --- ---- --- ------ ----- ------- ---- -- --- ------- --<br>------- ---------- ------ -- ----- -- ----- -- ---- ------<br>--- ----- --- --- ------ -------- ----- --- ------ ----- --<br>----- ----- ---------- --- --- ------ ------ ---- -- ------<br>------- --- ------ ----- --- ---- ------- -- easy --- --<br>------- ------,221268.33499999976,221262.56999999986,220853.212,220860.7949999996,220869.878,221269.862,,51,easy
screen,html.Screen,2_1_1_1_52,2021-04-26T09:32:57.392Z,,,,,,,,,,,,,,,,,54,,,,,,,,,,,,,,350.1029999998573,,response,,,,100,,,,,,,Space,keypress(Space),,,,,,,,-- --- ---- --- ------ ----- ------- ---- -- --- ------- --<br>------- ---------- ------ -- ----- -- ----- -- ---- ------<br>--- ----- --- --- ------ -------- ----- --- ------ ----- --<br>----- ----- ---------- --- --- ------ ------ ---- -- ------<br>------- --- ------ ----- --- ---- ------- -- ---- way --<br>------- ------,221625.72999999975,221619.96499999985,221253.196,221268.4900000004,221269.862,221636.514,,52,way
screen,html.Screen,2_1_1_1_53,2021-04-26T09:32:57.759Z,,,,,,,,,,,,,,,,,54,,,,,,,,,,,,,,350.4460000002,,response,,,,100,,,,,,,Space,keypress(Space),,,,,,,,-- --- ---- --- ------ ----- ------- ---- -- --- ------- --<br>------- ---------- ------ -- ----- -- ----- -- ---- ------<br>--- ----- --- --- ------ -------- ----- --- ------ ----- --<br>----- ----- ---------- --- --- ------ ------ ---- -- ------<br>------- --- ------ ----- --- ---- ------- -- ---- --- of<br>------- ------,221992.6349999996,221986.9600000002,221619.848,221625.8799999996,221636.514,222003.166,,53,of
screen,html.Screen,2_1_1_1_54,2021-04-26T09:32:58.180Z,,,,,,,,,,,,,,,,,54,,,,,,,,,,,,,,404.77899999992223,,response,,,,100,,,,,,,Space,keypress(Space),,,,,,,,-- --- ---- --- ------ ----- ------- ---- -- --- ------- --<br>------- ---------- ------ -- ----- -- ----- -- ---- ------<br>--- ----- --- --- ------ -------- ----- --- ------ ----- --<br>----- ----- ---------- --- --- ------ ------ ---- -- ------<br>------- --- ------ ----- --- ---- ------- -- ---- --- --<br>raising ------,222414.09999999998,222407.94499999992,221986.5,221992.79000000024,222003.166,222419.816,,54,raising
screen,html.Screen,2_1_1_1_55,2021-04-26T09:32:58.688Z,,,,,,,,,,,,,,,,,54,,,,,,,,,,,,,,496.11900000000605,,response,,,,100,,,,,,,Space,keypress(Space),,,,,,,,-- --- ---- --- ------ ----- ------- ---- -- --- ------- --<br>------- ---------- ------ -- ----- -- ----- -- ---- ------<br>--- ----- --- --- ------ -------- ----- --- ------ ----- --<br>----- ----- ---------- --- --- ------ ------ ---- -- ------<br>------- --- ------ ----- --- ---- ------- -- ---- --- --<br>------- money.,222921.5899999999,222915.935,222403.15,222414.2099999999,222419.816,222936.462,,55,money.
Item 100,flow.Loop,2_1_1_1,2021-04-26T09:32:58.688Z,,,,,,,,,,,,,,,,,,,,,,,,,,,,,,,30284.19200000001,,completion,,,,,A,,,,,,,,,,,silence,,,,,222921.8950000004,222915.935,192615.077,192617.55499999982,192631.743,222936.462,,,
Question 1,html.Screen,2_1_1_2,2021-04-26T09:33:01.160Z,,,,,,,,,,,,,,,,,,,,,,,,,,,,true,TRUE,,2453.5529999999562,,response,,,,100,A,,,,,,TRUE,click #choice-1,,,,silence,,,,,225394.0700000003,225390.01499999996,222919.796,222922.45,222936.462,225404.242,,,
Question 2,html.Screen,2_1_1_3,2021-04-26T09:33:06.569Z,,,,,,,,,,,,,,,,,,,,,,,,,,,,true,FALSE,,5393.977999999683,,response,,,,100,A,,,,,,FALSE,click #choice-2,,,,silence,,,,,230802.1349999999,230798.21999999968,225387.576,225394.2450000004,225404.242,230804.026,,,
Item 100,flow.Sequence,2_1_1,2021-04-26T09:33:06.569Z,,,,,,,,,,,,,,,,,,,,,,,,,,,,,,,48160.821999999695,,completion,,,,,,,,,,,,,,,,,,,,,230802.44000000038,230798.21999999968,182620.732,182633.19500000036,182637.398,230804.026,,,
End of Practice,html.Page,2_1_2,2021-04-26T09:33:12.691Z,,,,,,,,,,,,,,,,,,,,,,,,,,,,,,,6119.784000000218,,form submission,,,,,,,,,,,,,,,,,,,,,236924.81000000043,236923.81000000023,230787.36,230802.56499999994,230804.026,236922.73,,,
Practice,flow.Sequence,2_1,2021-04-26T09:33:12.692Z,,,,,,,,,,,,,,,,,,,,,,,,,,,,,,,116464.05900000023,,completion,,,,,,,,,,,,,,,,,,,,,236925.00999999992,236923.81000000023,120443.085,120455.79499999985,120459.751,236922.73,,,
Trap_instruction,html.Page,2_2_0,2021-04-26T09:33:17.142Z,,,,,,,,,,,,,,,,,,,,,,,,,,,,,,,4452.639999999752,,form submission,,,,,,,,,,,,,,,,,,,,,241375.73499999964,241375.36999999976,236906.064,236925.12499999977,236922.73,241389.218,,,
trap_trial,html.Screen,2_2_1,2021-04-26T09:33:20.598Z,,,,,,,,,,,,,,,,,,,,,,,,,,,,true,1,,3437.686999999918,,response,,,,,,,,,,,1,click #choice-1,,,,,,,,,244830.8049999996,244826.9049999999,241372.552,241375.8850000004,241389.218,244839.08,,,
end of trap trial,html.Page,2_2_2,2021-04-26T09:33:22.326Z,,,,,,,,,,,,,,,,,,,,,,,,,,,,,,,1719.7949999997218,,form submission,,,,,,,,,,,,,,,,,,,,,246559.6050000004,246558.8749999997,244822.414,244830.96999999997,244839.08,246572.344,,,
Trap 1,flow.Sequence,2_2,2021-04-26T09:33:22.327Z,,,,,,,,,,,,,,,,,,,,,,,,,,,,,,,9636.144999999698,,completion,,,,,,,,,,,,,,,,,,,,,246559.76499999996,246558.8749999997,236906.064,236925.08999999973,236922.73,246572.344,,,
Standby,html.Page,2_3_0,2021-04-26T09:33:30.324Z,,,,,,,,,,,,,,,,,,,,,,,,,,,,,,,7999.679999999993,,timeout,,,,,,,,,,,,,,,,,,,,,254557.34500000018,254555.358,246555.678,246559.87000000005,246572.344,254572.024,,,
Holding screen,html.Screen,2_3_1_0_0,2021-04-26T09:33:37.319Z,,,,,,,,,,,,,,,,,,,,,,,,,,,,,,,6995.821999999986,,timeout,,,,,,,,,,,,,,,,,,,,,261551.9350000004,261551.18,254555.358,254557.6000000001,254572.024,261567.846,,,
screen,html.Screen,2_3_1_0_1_0,2021-04-26T09:33:38.108Z,,,,,,,,,,,,,,,,,51,,,,,,,,,,,,,,765.8490000002494,,response,,,,13,A,,,,,,Space,keypress(Space),,,,silence,,,,American -------- --- --- ---- --- --- ------ -- --------<br>---- --------- --- ------- ------------ ---------- ---------<br>--- ---------- ------- ---------- ------- -- -------- ----<br>---- --- ------ ----- ------ -- ---- --- ----- -- - -------<br>-------- -- --- --- -- ----- ----------- ----- -----------<br>---- --- ---------- --- ---- --- -- ----------,262340.5999999995,262333.69500000024,261551.18,261552.13000000003,261567.846,262351.148,,0,American
screen,html.Screen,2_3_1_0_1_1,2021-04-26T09:33:38.713Z,,,,,,,,,,,,,,,,,51,,,,,,,,,,,,,,588.4119999998366,,response,,,,13,A,,,,,,Space,keypress(Space),,,,silence,,,,-------- industry --- --- ---- --- --- ------ -- --------<br>---- --------- --- ------- ------------ ---------- ---------<br>--- ---------- ------- ---------- ------- -- -------- ----<br>---- --- ------ ----- ------ -- ---- --- ----- -- - -------<br>-------- -- --- --- -- ----- ----------- ----- -----------<br>---- --- ---------- --- ---- --- -- ----------,262945.5399999997,262939.5599999998,262334.482,262340.73999999964,262351.148,262951.124,,1,industry
screen,html.Screen,2_3_1_0_1_2,2021-04-26T09:33:39.290Z,,,,,,,,,,,,,,,,,51,,,,,,,,,,,,,,566.2160000003059,,response,,,,13,A,,,,,,Space,keypress(Space),,,,silence,,,,-------- -------- may --- ---- --- --- ------ -- --------<br>---- --------- --- ------- ------------ ---------- ---------<br>--- ---------- ------- ---------- ------- -- -------- ----<br>---- --- ------ ----- ------ -- ---- --- ----- -- - -------<br>-------- -- --- --- -- ----- ----------- ----- -----------<br>---- --- ---------- --- ---- --- -- ----------,263523.0099999999,263517.3400000003,262934.458,262945.69500000036,262951.124,263534.434,,2,may
screen,html.Screen,2_3_1_0_1_3,2021-04-26T09:33:39.875Z,,,,,,,,,,,,,,,,,51,,,,,,,,,,,,,,567.0110000002314,,response,,,,13,A,,,,,,Space,keypress(Space),,,,silence,,,,-------- -------- --- not ---- --- --- ------ -- --------<br>---- --------- --- ------- ------------ ---------- ---------<br>--- ---------- ------- ---------- ------- -- -------- ----<br>---- --- ------ ----- ------ -- ---- --- ----- -- - -------<br>-------- -- --- --- -- ----- ----------- ----- -----------<br>---- --- ---------- --- ---- --- -- ----------,264107.22999999963,264101.44500000024,263517.768,263523.16499999963,263534.434,264117.744,,3,not
screen,html.Screen,2_3_1_0_1_4,2021-04-26T09:33:40.349Z,,,,,,,,,,,,,,,,,51,,,,,,,,,,,,,,457.7909999999101,,response,,,,13,A,,,,,,Space,keypress(Space),,,,silence,,,,-------- -------- --- --- know --- --- ------ -- --------<br>---- --------- --- ------- ------------ ---------- ---------<br>--- ---------- ------- ---------- ------- -- -------- ----<br>---- --- ------ ----- ------ -- ---- --- ----- -- - -------<br>-------- -- --- --- -- ----- ----------- ----- -----------<br>---- --- ---------- --- ---- --- -- ----------,264581.32000000024,264575.5349999999,264101.078,264107.39000000013,264117.744,264584.392,,4,know
screen,html.Screen,2_3_1_0_1_5,2021-04-26T09:33:40.864Z,,,,,,,,,,,,,,,,,51,,,,,,,,,,,,,,506.12799999973504,,response,,,,13,A,,,,,,Space,keypress(Space),,,,silence,,,,"-------- -------- --- --- ---- it, --- ------ -- --------<br>---- --------- --- ------- ------------ ---------- ---------<br>--- ---------- ------- ---------- ------- -- -------- ----<br>---- --- ------ ----- ------ -- ---- --- ----- -- - -------<br>-------- -- --- --- -- ----- ----------- ----- -----------<br>---- --- ---------- --- ---- --- -- ----------",265096.3300000003,265090.5199999997,264567.726,264581.475,264584.392,265101.038,,5,"it,"
screen,html.Screen,2_3_1_0_1_6,2021-04-26T09:33:41.370Z,,,,,,,,,,,,,,,,,51,,,,,,,,,,,,,,495.48200000007637,,response,,,,13,A,,,,,,Space,keypress(Space),,,,silence,,,,-------- -------- --- --- ---- --- but ------ -- --------<br>---- --------- --- ------- ------------ ---------- ---------<br>--- ---------- ------- ---------- ------- -- -------- ----<br>---- --- ------ ----- ------ -- ---- --- ----- -- - -------<br>-------- -- --- --- -- ----- ----------- ----- -----------<br>---- --- ---------- --- ---- --- -- ----------,265602.175,265596.5200000001,265084.372,265096.48500000004,265101.038,265617.684,,6,but
screen,html.Screen,2_3_1_0_1_7,2021-04-26T09:33:41.859Z,,,,,,,,,,,,,,,,,51,,,,,,,,,,,,,,467.7410000002128,,response,,,,13,A,,,,,,Space,keypress(Space),,,,silence,,,,-------- -------- --- --- ---- --- --- debate -- --------<br>---- --------- --- ------- ------------ ---------- ---------<br>--- ---------- ------- ---------- ------- -- -------- ----<br>---- --- ------ ----- ------ -- ---- --- ----- -- - -------<br>-------- -- --- --- -- ----- ----------- ----- -----------<br>---- --- ---------- --- ---- --- -- ----------,266091.2099999996,266085.4250000002,265601.018,265602.3299999997,265617.684,266100.998,,7,debate
screen,html.Screen,2_3_1_0_1_8,2021-04-26T09:33:42.335Z,,,,,,,,,,,,,,,,,51,,,,,,,,,,,,,,460.51199999952223,,response,,,,13,A,,,,,,Space,keypress(Space),,,,silence,,,,-------- -------- --- --- ---- --- --- ------ in --------<br>---- --------- --- ------- ------------ ---------- ---------<br>--- ---------- ------- ---------- ------- -- -------- ----<br>---- --- ------ ----- ------ -- ---- --- ----- -- - -------<br>-------- -- --- --- -- ----- ----------- ----- -----------<br>---- --- ---------- --- ---- --- -- ----------,266568.00500000006,266561.50999999954,266084.332,266091.3700000001,266100.998,266584.312,,8,in
screen,html.Screen,2_3_1_0_1_9,2021-04-26T09:33:42.779Z,,,,,,,,,,,,,,,,,51,,,,,,,,,,,,,,421.83800000016345,,response,,,,13,A,,,,,,Space,keypress(Space),,,,silence,,,,-------- -------- --- --- ---- --- --- ------ -- Congress<br>---- --------- --- ------- ------------ ---------- ---------<br>--- ---------- ------- ---------- ------- -- -------- ----<br>---- --- ------ ----- ------ -- ---- --- ----- -- - -------<br>-------- -- --- --- -- ----- ----------- ----- -----------<br>---- --- ---------- --- ---- --- -- ----------,267011.8199999997,267006.15000000014,266567.646,266568.1649999997,266584.312,267017.628,,9,Congress
screen,html.Screen,2_3_1_0_1_10,2021-04-26T09:33:43.223Z,,,,,,,,,,,,,,,,,51,,,,,,,,,,,,,,431.8719999996829,,response,,,,13,A,,,,,,Space,keypress(Space),,,,silence,,,,-------- -------- --- --- ---- --- --- ------ -- --------<br>over --------- --- ------- ------------ ---------- ---------<br>--- ---------- ------- ---------- ------- -- -------- ----<br>---- --- ------ ----- ------ -- ---- --- ----- -- - -------<br>-------- -- --- --- -- ----- ----------- ----- -----------<br>---- --- ---------- --- ---- --- -- ----------,267455.0650000001,267449.4999999997,267000.962,267011.9800000002,267017.628,267467.61,,10,over
screen,html.Screen,2_3_1_0_1_11,2021-04-26T09:33:43.774Z,,,,,,,,,,,,,,,,,51,,,,,,,,,,,,,,531.8599999997532,,response,,,,13,A,,,,,,Space,keypress(Space),,,,silence,,,,-------- -------- --- --- ---- --- --- ------ -- --------<br>---- reforming --- ------- ------------ ---------- ---------<br>--- ---------- ------- ---------- ------- -- -------- ----<br>---- --- ------ ----- ------ -- ---- --- ----- -- - -------<br>-------- -- --- --- -- ----- ----------- ----- -----------<br>---- --- ---------- --- ---- --- -- ----------,268006.84,267999.46999999974,267450.944,267455.21999999986,267467.61,268017.588,,11,reforming
screen,html.Screen,2_3_1_0_1_12,2021-04-26T09:33:44.351Z,,,,,,,,,,,,,,,,,51,,,,,,,,,,,,,,559.9069999995409,,response,,,,13,A,,,,,,Space,keypress(Space),,,,silence,,,,-------- -------- --- --- ---- --- --- ------ -- --------<br>---- --------- the ------- ------------ ---------- ---------<br>--- ---------- ------- ---------- ------- -- -------- ----<br>---- --- ------ ----- ------ -- ---- --- ----- -- - -------<br>-------- -- --- --- -- ----- ----------- ----- -----------<br>---- --- ---------- --- ---- --- -- ----------,268583.0299999998,268577.49499999953,268000.922,268007.0349999996,268017.588,268584.232,,12,the
screen,html.Screen,2_3_1_0_1_13,2021-04-26T09:33:44.954Z,,,,,,,,,,,,,,,,,51,,,,,,,,,,,,,,596.1980000003241,,response,,,,13,A,,,,,,Space,keypress(Space),,,,silence,,,,-------- -------- --- --- ---- --- --- ------ -- --------<br>---- --------- --- federal ------------ ---------- ---------<br>--- ---------- ------- ---------- ------- -- -------- ----<br>---- --- ------ ----- ------ -- ---- --- ----- -- - -------<br>-------- -- --- --- -- ----- ----------- ----- -----------<br>---- --- ---------- --- ---- --- -- ----------,269186.2350000001,269180.43000000034,268567.566,268583.1900000003,268584.232,269195.665,,13,federal
screen,html.Screen,2_3_1_0_1_14,2021-04-26T09:33:45.478Z,,,,,,,,,,,,,,,,,51,,,,,,,,,,,,,,509.76000000012573,,response,,,,13,A,,,,,,Space,keypress(Space),,,,silence,,,,-------- -------- --- --- ---- --- --- ------ -- --------<br>---- --------- --- ------- government's ---------- ---------<br>--- ---------- ------- ---------- ------- -- -------- ----<br>---- --- ------ ----- ------ -- ---- --- ----- -- - -------<br>-------- -- --- --- -- ----- ----------- ----- -----------<br>---- --- ---------- --- ---- --- -- ----------,269710.9099999998,269705.4250000001,269178.999,269186.38999999984,269195.665,269712.311,,14,government's
screen,html.Screen,2_3_1_0_1_15,2021-04-26T09:33:46.008Z,,,,,,,,,,,,,,,,,51,,,,,,,,,,,,,,522.0240000000922,,response,,,,13,A,,,,,,Space,keypress(Space),,,,silence,,,,-------- -------- --- --- ---- --- --- ------ -- --------<br>---- --------- --- ------- ------------ regulatory ---------<br>--- ---------- ------- ---------- ------- -- -------- ----<br>---- --- ------ ----- ------ -- ---- --- ----- -- - -------<br>-------- -- --- --- -- ----- ----------- ----- -----------<br>---- --- ---------- --- ---- --- -- ----------,270240.1,270234.3350000001,269695.645,269711.0650000004,269712.311,270245.623,,15,regulatory
screen,html.Screen,2_3_1_0_1_16,2021-04-26T09:33:46.551Z,,,,,,,,,,,,,,,,,51,,,,,,,,,,,,,,531.7419999999111,,response,,,,13,A,,,,,,Space,keypress(Space),,,,silence,,,,-------- -------- --- --- ---- --- --- ------ -- --------<br>---- --------- --- ------- ------------ ---------- apparatus<br>--- ---------- ------- ---------- ------- -- -------- ----<br>---- --- ------ ----- ------ -- ---- --- ----- -- - -------<br>-------- -- --- --- -- ----- ----------- ----- -----------<br>---- --- ---------- --- ---- --- -- ----------,270782.9700000002,270777.36499999993,270228.957,270240.2549999997,270245.623,270795.601,,16,apparatus
screen,html.Screen,2_3_1_0_1_17,2021-04-26T09:33:47.093Z,,,,,,,,,,,,,,,,,51,,,,,,,,,,,,,,523.7039999999688,,response,,,,13,A,,,,,,Space,keypress(Space),,,,silence,,,,-------- -------- --- --- ---- --- --- ------ -- --------<br>---- --------- --- ------- ------------ ---------- ---------<br>may ---------- ------- ---------- ------- -- -------- ----<br>---- --- ------ ----- ------ -- ---- --- ----- -- - -------<br>-------- -- --- --- -- ----- ----------- ----- -----------<br>---- --- ---------- --- ---- --- -- ----------,271324.9999999998,271319.305,270778.935,270783.12499999994,270795.601,271328.913,,17,may
screen,html.Screen,2_3_1_0_1_18,2021-04-26T09:33:47.686Z,,,,,,,,,,,,,,,,,51,,,,,,,,,,,,,,583.4170000001322,,response,,,,13,A,,,,,,Space,keypress(Space),,,,silence,,,,-------- -------- --- --- ---- --- --- ------ -- --------<br>---- --------- --- ------- ------------ ---------- ---------<br>--- profoundly ------- ---------- ------- -- -------- ----<br>---- --- ------ ----- ------ -- ---- --- ----- -- - -------<br>-------- -- --- --- -- ----- ----------- ----- -----------<br>---- --- ---------- --- ---- --- -- ----------,271918.02499999997,271912.33000000013,271312.247,271325.1600000003,271328.913,271928.889,,18,profoundly
screen,html.Screen,2_3_1_0_1_19,2021-04-26T09:33:48.144Z,,,,,,,,,,,,,,,,,51,,,,,,,,,,,,,,440.4359999996377,,response,,,,13,A,,,,,,Space,keypress(Space),,,,silence,,,,-------- -------- --- --- ---- --- --- ------ -- --------<br>---- --------- --- ------- ------------ ---------- ---------<br>--- ---------- improve ---------- ------- -- -------- ----<br>---- --- ------ ----- ------ -- ---- --- ----- -- - -------<br>-------- -- --- --- -- ----- ----------- ----- -----------<br>---- --- ---------- --- ---- --- -- ----------,272376.26,272369.32499999966,271912.223,271918.17999999964,271928.889,272378.871,,19,improve
screen,html.Screen,2_3_1_0_1_20,2021-04-26T09:33:48.756Z,,,,,,,,,,,,,,,,,51,,,,,,,,,,,,,,603.4390000003623,,response,,,,13,A,,,,,,Space,keypress(Space),,,,silence,,,,-------- -------- --- --- ---- --- --- ------ -- --------<br>---- --------- --- ------- ------------ ---------- ---------<br>--- ---------- ------- companies' ------- -- -------- ----<br>---- --- ------ ----- ------ -- ---- --- ----- -- - -------<br>-------- -- --- --- -- ----- ----------- ----- -----------<br>---- --- ---------- --- ---- --- -- ----------,272987.9350000001,272982.31000000035,272362.205,272376.41499999975,272378.871,272995.513,,20,companies'
screen,html.Screen,2_3_1_0_1_21,2021-04-26T09:33:49.290Z,,,,,,,,,,,,,,,,,51,,,,,,,,,,,,,,520.8970000001718,,response,,,,13,A,,,,,,Space,keypress(Space),,,,silence,,,,-------- -------- --- --- ---- --- --- ------ -- --------<br>---- --------- --- ------- ------------ ---------- ---------<br>--- ---------- ------- ---------- ability -- -------- ----<br>---- --- ------ ----- ------ -- ---- --- ----- -- - -------<br>-------- -- --- --- -- ----- ----------- ----- -----------<br>---- --- ---------- --- ---- --- -- ----------,273522.14,273516.41000000015,272978.847,272988.0949999997,272995.513,273528.825,,21,ability
screen,html.Screen,2_3_1_0_1_22,2021-04-26T09:33:49.850Z,,,,,,,,,,,,,,,,,51,,,,,,,,,,,,,,547.5600000002887,,response,,,,13,A,,,,,,Space,keypress(Space),,,,silence,,,,-------- -------- --- --- ---- --- --- ------ -- --------<br>---- --------- --- ------- ------------ ---------- ---------<br>--- ---------- ------- ---------- ------- to -------- ----<br>---- --- ------ ----- ------ -- ---- --- ----- -- - -------<br>-------- -- --- --- -- ----- ----------- ----- -----------<br>---- --- ---------- --- ---- --- -- ----------,274081.91499999975,274076.3850000003,273512.159,273522.29499999975,273528.825,274095.469,,22,to
screen,html.Screen,2_3_1_0_1_23,2021-04-26T09:33:50.901Z,,,,,,,,,,,,,,,,,51,,,,,,,,,,,,,,1031.831000000122,,response,,,,13,A,,,,,,Space,keypress(Space),,,,silence,,,,-------- -------- --- --- ---- --- --- ------ -- --------<br>---- --------- --- ------- ------------ ---------- ---------<br>--- ---------- ------- ---------- ------- -- survive. ----<br>---- --- ------ ----- ------ -- ---- --- ----- -- - -------<br>-------- -- --- --- -- ----- ----------- ----- -----------<br>---- --- ---------- --- ---- --- -- ----------,275132.85,275127.3000000001,274078.803,274082.07500000024,274095.469,275145.427,,23,survive.
screen,html.Screen,2_3_1_0_1_24,2021-04-26T09:33:51.622Z,,,,,,,,,,,,,,,,,51,,,,,,,,,,,,,,703.1229999996722,,response,,,,13,A,,,,,,Space,keypress(Space),,,,silence,,,,-------- -------- --- --- ---- --- --- ------ -- --------<br>---- --------- --- ------- ------------ ---------- ---------<br>--- ---------- ------- ---------- ------- -- -------- This<br>---- --- ------ ----- ------ -- ---- --- ----- -- - -------<br>-------- -- --- --- -- ----- ----------- ----- -----------<br>---- --- ---------- --- ---- --- -- ----------,275854.2100000004,275848.5499999997,275128.761,275133.00999999954,275145.427,275862.065,,24,This
screen,html.Screen,2_3_1_0_1_25,2021-04-26T09:33:52.240Z,,,,,,,,,,,,,,,,,51,,,,,,,,,,,,,,604.2399999999325,,response,,,,13,A,,,,,,Space,keypress(Space),,,,silence,,,,-------- -------- --- --- ---- --- --- ------ -- --------<br>---- --------- --- ------- ------------ ---------- ---------<br>--- ---------- ------- ---------- ------- -- -------- ----<br>week --- ------ ----- ------ -- ---- --- ----- -- - -------<br>-------- -- --- --- -- ----- ----------- ----- -----------<br>---- --- ---------- --- ---- --- -- ----------,276472.05500000017,276466.30499999993,275845.399,275854.3749999999,275862.065,276478.707,,25,week
screen,html.Screen,2_3_1_0_1_26,2021-04-26T09:33:52.779Z,,,,,,,,,,,,,,,,,51,,,,,,,,,,,,,,526.5480000000098,,response,,,,13,A,,,,,,Space,keypress(Space),,,,silence,,,,-------- -------- --- --- ---- --- --- ------ -- --------<br>---- --------- --- ------- ------------ ---------- ---------<br>--- ---------- ------- ---------- ------- -- -------- ----<br>---- the ------ ----- ------ -- ---- --- ----- -- - -------<br>-------- -- --- --- -- ----- ----------- ----- -----------<br>---- --- ---------- --- ---- --- -- ----------,277011.0199999999,277005.255,276462.041,276472.2099999999,276478.707,277028.685,,26,the
screen,html.Screen,2_3_1_0_1_27,2021-04-26T09:33:53.282Z,,,,,,,,,,,,,,,,,51,,,,,,,,,,,,,,479.655000000319,,response,,,,13,A,,,,,,Space,keypress(Space),,,,silence,,,,-------- -------- --- --- ---- --- --- ------ -- --------<br>---- --------- --- ------- ------------ ---------- ---------<br>--- ---------- ------- ---------- ------- -- -------- ----<br>---- --- Senate ----- ------ -- ---- --- ----- -- - -------<br>-------- -- --- --- -- ----- ----------- ----- -----------<br>---- --- ---------- --- ---- --- -- ----------,277514.1199999998,277508.3400000003,277012.019,277011.17499999964,277028.685,277528.665,,27,Senate
screen,html.Screen,2_3_1_0_1_28,2021-04-26T09:33:53.851Z,,,,,,,,,,,,,,,,,51,,,,,,,,,,,,,,548.5800000004238,,response,,,,13,A,,,,,,Space,keypress(Space),,,,silence,,,,-------- -------- --- --- ---- --- --- ------ -- --------<br>---- --------- --- ------- ------------ ---------- ---------<br>--- ---------- ------- ---------- ------- -- -------- ----<br>---- --- ------ seems ------ -- ---- --- ----- -- - -------<br>-------- -- --- --- -- ----- ----------- ----- -----------<br>---- --- ---------- --- ---- --- -- ----------,278082.8199999996,278077.2450000004,277511.999,277514.27499999956,277528.665,278095.309,,28,seems
screen,html.Screen,2_3_1_0_1_29,2021-04-26T09:33:54.339Z,,,,,,,,,,,,,,,,,51,,,,,,,,,,,,,,470.03100000007544,,response,,,,13,A,,,,,,Space,keypress(Space),,,,silence,,,,-------- -------- --- --- ---- --- --- ------ -- --------<br>---- --------- --- ------- ------------ ---------- ---------<br>--- ---------- ------- ---------- ------- -- -------- ----<br>---- --- ------ ----- poised -- ---- --- ----- -- - -------<br>-------- -- --- --- -- ----- ----------- ----- -----------<br>---- --- ---------- --- ---- --- -- ----------,278571.06999999995,278565.3400000001,278078.643,278082.97500000027,278095.309,278578.623,,29,poised
screen,html.Screen,2_3_1_0_1_30,2021-04-26T09:33:54.839Z,,,,,,,,,,,,,,,,,51,,,,,,,,,,,,,,486.5169999997015,,response,,,,13,A,,,,,,Space,keypress(Space),,,,silence,,,,-------- -------- --- --- ---- --- --- ------ -- --------<br>---- --------- --- ------- ------------ ---------- ---------<br>--- ---------- ------- ---------- ------- -- -------- ----<br>---- --- ------ ----- ------ to ---- --- ----- -- - -------<br>-------- -- --- --- -- ----- ----------- ----- -----------<br>---- --- ---------- --- ---- --- -- ----------,279070.77500000014,279065.1399999997,278561.957,278571.23500000034,278578.623,279071.982,,30,to
screen,html.Screen,2_3_1_0_1_31,2021-04-26T09:33:55.272Z,,,,,,,,,,,,,,,,,51,,,,,,,,,,,,,,425.3329999995767,,response,,,,13,A,,,,,,Space,keypress(Space),,,,silence,,,,-------- -------- --- --- ---- --- --- ------ -- --------<br>---- --------- --- ------- ------------ ---------- ---------<br>--- ---------- ------- ---------- ------- -- -------- ----<br>---- --- ------ ----- ------ -- join --- ----- -- - -------<br>-------- -- --- --- -- ----- ----------- ----- -----------<br>---- --- ---------- --- ---- --- -- ----------,279504.34000000043,279497.3149999996,279055.316,279070.9349999997,279071.982,279521.964,,31,join
screen,html.Screen,2_3_1_0_1_32,2021-04-26T09:33:55.712Z,,,,,,,,,,,,,,,,,51,,,,,,,,,,,,,,416.2510000001639,,response,,,,13,A,,,,,,Space,keypress(Space),,,,silence,,,,-------- -------- --- --- ---- --- --- ------ -- --------<br>---- --------- --- ------- ------------ ---------- ---------<br>--- ---------- ------- ---------- ------- -- -------- ----<br>---- --- ------ ----- ------ -- ---- the ----- -- - -------<br>-------- -- --- --- -- ----- ----------- ----- -----------<br>---- --- ---------- --- ---- --- -- ----------,279943.9199999997,279938.21500000014,279505.298,279504.45000000036,279521.964,279955.28,,32,the
screen,html.Screen,2_3_1_0_1_33,2021-04-26T09:33:56.064Z,,,,,,,,,,,,,,,,,51,,,,,,,,,,,,,,335.1050000002142,,response,,,,13,A,,,,,,Space,keypress(Space),,,,silence,,,,-------- -------- --- --- ---- --- --- ------ -- --------<br>---- --------- --- ------- ------------ ---------- ---------<br>--- ---------- ------- ---------- ------- -- -------- ----<br>---- --- ------ ----- ------ -- ---- --- House -- - -------<br>-------- -- --- --- -- ----- ----------- ----- -----------<br>---- --- ---------- --- ---- --- -- ----------,280296.09999999957,280290.38500000024,279938.614,279944.0800000002,279955.28,280305.266,,33,House
screen,html.Screen,2_3_1_0_1_34,2021-04-26T09:33:56.662Z,,,,,,,,,,,,,,,,,51,,,,,,,,,,,,,,583.2139999996289,,response,,,,13,A,,,,,,Space,keypress(Space),,,,silence,,,,-------- -------- --- --- ---- --- --- ------ -- --------<br>---- --------- --- ------- ------------ ---------- ---------<br>--- ---------- ------- ---------- ------- -- -------- ----<br>---- --- ------ ----- ------ -- ---- --- ----- in - -------<br>-------- -- --- --- -- ----- ----------- ----- -----------<br>---- --- ---------- --- ---- --- -- ----------,280894.23499999975,280888.47999999963,280288.6,280296.26000000007,280305.266,280905.242,,34,in
screen,html.Screen,2_3_1_0_1_35,2021-04-26T09:33:57.112Z,,,,,,,,,,,,,,,,,51,,,,,,,,,,,,,,430.9529999998049,,response,,,,13,A,,,,,,Space,keypress(Space),,,,silence,,,,-------- -------- --- --- ---- --- --- ------ -- --------<br>---- --------- --- ------- ------------ ---------- ---------<br>--- ---------- ------- ---------- ------- -- -------- ----<br>---- --- ------ ----- ------ -- ---- --- ----- -- a -------<br>-------- -- --- --- -- ----- ----------- ----- -----------<br>---- --- ---------- --- ---- --- -- ----------,281344.5449999999,281336.19499999983,280888.576,280894.39000000036,280905.242,281355.224,,35,a
screen,html.Screen,2_3_1_0_1_36,2021-04-26T09:33:57.612Z,,,,,,,,,,,,,,,,,51,,,,,,,,,,,,,,482.9509999998845,,response,,,,13,A,,,,,,Space,keypress(Space),,,,silence,,,,-------- -------- --- --- ---- --- --- ------ -- --------<br>---- --------- --- ------- ------------ ---------- ---------<br>--- ---------- ------- ---------- ------- -- -------- ----<br>---- --- ------ ----- ------ -- ---- --- ----- -- - massive<br>-------- -- --- --- -- ----- ----------- ----- -----------<br>---- --- ---------- --- ---- --- -- ----------,281843.8349999997,281838.1749999999,281338.558,281344.68000000017,281355.224,281855.204,,36,massive
screen,html.Screen,2_3_1_0_1_37,2021-04-26T09:33:58.076Z,,,,,,,,,,,,,,,,,51,,,,,,,,,,,,,,447.1109999998589,,response,,,,13,A,,,,,,Space,keypress(Space),,,,silence,,,,-------- -------- --- --- ---- --- --- ------ -- --------<br>---- --------- --- ------- ------------ ---------- ---------<br>--- ---------- ------- ---------- ------- -- -------- ----<br>---- --- ------ ----- ------ -- ---- --- ----- -- - -------<br>overhaul -- --- --- -- ----- ----------- ----- -----------<br>---- --- ---------- --- ---- --- -- ----------,282308.1849999999,282302.3149999999,281838.538,281843.9900000003,281855.204,282321.852,,37,overhaul
