sender,sender_type,sender_id,timestamp,meta,,Blues,Classical,Country,Dance,Electronic,Folk,Gospel,Hip-Hop,Jazz,Latin,Musical/Film,New-age,Pop,Provo_ID,R&B,Rap,Reggae,Religious,Rock,Soul,Swing,Traditional,age,artist_name,correct,correctResponse,distraction,duration,ended_on,familiarity,gender,headphone_check_performance,item,list,offensiveness,pleasantness,position_correct,preference,response,response_action,snippet_file,song_name,song_rating,sound,stimulus_1,stimulus_2,stimulus_3,text,time_commit,time_end,time_render,time_run,time_show,time_switch,url,word,word_ID
Introduction,html.Screen,0_0,2021-03-14T00:28:55.389Z,"{""labjs_version"":""20.2.2"",""labjs_build"":{""flavor"":""production"",""commit"":""a25486e0c714a0ae2ce03ff94b7bb6896854dcfa""},""location"":""https://run.pavlovia.org/mvasilev/spr_test/"",""userAgent"":""Mozilla/5.0 (Windows NT 10.0; Win64; x64) AppleWebKit/537.36 (KHTML, like Gecko) Chrome/89.0.4389.82 Safari/537.36"",""platform"":""Win32"",""language"":""de-DE"",""locale"":""en-US"",""timeZone"":""Europe/London"",""timezoneOffset"":0,""screen_width"":2560,""screen_height"":1440,""scroll_width"":2560,""scroll_height"":1230,""window_innerWidth"":2560,""window_innerHeight"":1278,""devicePixelRatio"":1}",,,,,,,,,,,,,,,,,,,,,,,,,,,,,4782.223000018486,response,,,,,,,,,,continue,click button,,,,,,,,,12841.210000013234,12839.850000018487,8024.3,8035.090000019409,8057.627,12861.505,{},,
Volume calibration,html.Screen,0_1,2021-03-14T00:28:58.510Z,,,,,,,,,,,,,,,,,,,,,,,,,,,,,,3098.5950000257053,response,,,,,,,,,,continue,click button,,,,,,,,,15962.71500000148,15960.100000025705,12844.852,12841.480000002775,12861.505,15964.062,,,
Task instructions,html.Screen,0_2,2021-03-14T00:29:00.428Z,,,,,,,,,,,,,,,,,,,,,,,,,,,,,,1915.81800002224,response,,,,,,,,,,continue,click button,,,,,,,,,17880.650000006426,17879.88000002224,15947.486,15962.874999997439,15964.062,17882.287,,,
Sounds,html.Screen,0_3_0_0,2021-03-14T00:29:04.671Z,,,,,,,,,,,,,,,,,,,,,,,,,,,,,,4253.358,timeout,,,,,,,,2,,,,,,,,I,S,O,,22123.565000016242,22119.083,17865.632,17880.87500000256,17882.287,22135.645,,,
Judgement,html.Screen,0_3_0_1,2021-03-14T00:29:05.892Z,,,,,,,,,,,,,,,,,,,,,,,,,,,true,2,,1208.0500000177599,response,,,,,,,,2,,2,click #choice-2,,,,,I,S,O,,23344.465000001946,23343.69500001776,22119.083,22123.865000001388,22135.645,23353.248,,,
Trial,flow.Sequence,0_3_0,2021-03-14T00:29:05.892Z,,,,,,,,,,,,,,,,,,,,,,,,,,,,,,5461.40800001776,completion,,,,,,,,2,,,,,,,,I,S,O,,23344.7950000118,23343.69500001776,17865.632,17880.825000000186,17882.287,23353.248,,,
Sounds,html.Screen,0_3_1_0,2021-03-14T00:29:10.139Z,,,,,,,,,,,,,,,,,,,,,,,,,,,,,,4253.642,timeout,,,,,,,,1,,,,,,,,S,I,O,,27591.340000013588,27590.163,23336.755,23344.940000009956,23353.248,27606.89,,,
Judgement,html.Screen,0_3_1_1,2021-03-14T00:29:10.980Z,,,,,,,,,,,,,,,,,,,,,,,,,,,true,1,,824.8950000225013,response,,,,,,,,1,,1,click #choice-1,,,,,S,I,O,,28432.53000002005,28431.7850000225,27590.163,27591.70499999891,27606.89,28440.783,,,
Trial,flow.Sequence,0_3_1,2021-03-14T00:29:10.980Z,,,,,,,,,,,,,,,,,,,,,,,,,,,,,,5078.537000022501,completion,,,,,,,,1,,,,,,,,S,I,O,,28432.760000025155,28431.7850000225,23336.755,23344.89000000758,23353.248,28440.783,,,
Sounds,html.Screen,0_3_2_0,2021-03-14T00:29:15.226Z,,,,,,,,,,,,,,,,,,,,,,,,,,,,,,4253.530999999999,timeout,,,,,,,,3,,,,,,,,O,I,S,,32678.530000004685,32677.678,28424.161,28432.910000003176,28440.783,32694.314,,,
Judgement,html.Screen,0_3_2_1,2021-03-14T00:29:15.980Z,,,,,,,,,,,,,,,,,,,,,,,,,,,true,3,,737.5510000204813,response,,,,,,,,3,,3,click #choice-3,,,,,O,I,S,,33432.51500002225,33431.86500002048,32677.678,32678.76000000979,32694.314,33444.945,,,
Trial,flow.Sequence,0_3_2,2021-03-14T00:29:15.980Z,,,,,,,,,,,,,,,,,,,,,,,,,,,,,,4991.08200002048,completion,,,,,,,,3,,,,,,,,O,I,S,,33432.71000002278,33431.86500002048,28424.161,28432.8600000008,28440.783,33444.945,,,
Sounds,html.Screen,0_3_3_0,2021-03-14T00:29:20.230Z,,,,,,,,,,,,,,,,,,,,,,,,,,,,,,4253.478999999999,timeout,,,,,,,,3,,,,,,,,I,O,S,,37682.6450000226,37681.728,33428.224,33432.85000001197,33444.945,37698.424,,,
Judgement,html.Screen,0_3_3_1,2021-03-14T00:29:20.836Z,,,,,,,,,,,,,,,,,,,,,,,,,,,true,3,,589.5060000204248,response,,,,,,,,3,,3,click #choice-3,,,,,I,O,S,,38288.66000002017,38287.930000020424,37681.728,37682.88500001654,37698.424,38298.847,,,
Trial,flow.Sequence,0_3_3,2021-03-14T00:29:20.836Z,,,,,,,,,,,,,,,,,,,,,,,,,,,,,,4842.985000020424,completion,,,,,,,,3,,,,,,,,I,O,S,,38288.8550000207,38287.930000020424,33428.224,33432.80000000959,33444.945,38298.847,,,
Sounds,html.Screen,0_3_4_0,2021-03-14T00:29:25.084Z,,,,,,,,,,,,,,,,,,,,,,,,,,,,,,4253.472999999998,timeout,,,,,,,,1,,,,,,,,S,O,I,,42536.55499999877,42535.681,38282.236,38288.98000001209,38298.847,42552.32,,,
Judgement,html.Screen,0_3_4_1,2021-03-14T00:29:25.740Z,,,,,,,,,,,,,,,,,,,,,,,,,,,true,1,,639.5400000208247,response,,,,,,,,1,,1,click #choice-1,,,,,S,O,I,,43192.685000016354,43191.860000020824,42535.681,42536.80000000168,42552.32,43202.799,,,
Trial,flow.Sequence,0_3_4,2021-03-14T00:29:25.740Z,,,,,,,,,,,,,,,,,,,,,,,,,,,,,,4893.013000020823,completion,,,,,,,,1,,,,,,,,S,O,I,,43192.880000016885,43191.860000020824,38282.236,38288.945000007516,38298.847,43202.799,,,
Sounds,html.Screen,0_3_5_0,2021-03-14T00:29:29.988Z,,,,,,,,,,,,,,,,,,,,,,,,,,,,,,4253.508000000002,timeout,,,,,,,,2,,,,,,,,O,S,I,,47440.56499999715,47439.669,43186.235,43192.9999999993,43202.799,47456.307,,,
Judgement,html.Screen,0_3_5_1,2021-03-14T00:29:30.908Z,,,,,,,,,,,,,,,,,,,,,,,,,,,true,2,,903.5930000103835,response,,,,,,,,2,,2,click #choice-2,,,,,O,S,I,,48360.69500001031,48359.900000010384,47439.669,47440.79000002239,47456.307,48373.575,,,
Trial,flow.Sequence,0_3_5,2021-03-14T00:29:30.908Z,,,,,,,,,,,,,,,,,,,,,,,,,,,,,,5157.101000010385,completion,,,,,,,,2,,,,,,,,O,S,I,,48360.88000002201,48359.900000010384,43186.235,43192.96500002383,43202.799,48373.575,,,
Task,flow.Loop,0_3,2021-03-14T00:29:30.912Z,,,,,,,,,,,,,,,,,,,,,,,,,,,,,,30477.613000010384,completion,,,1,,,,,,,,,,,,,,,,,48364.8749999993,48359.900000010384,17865.632,17880.77499999781,17882.287,48373.575,,,
Trap,html.Screen,0_4,2021-03-14T00:29:30.914Z,,,,,,,,,,,,,,,,,,,,,,,,,,,,,,NaN,skipped,,,,,,,,,,,,,,,,,,,,48366.130000009434,48359.900000010384,,48365.99500000011,,48373.575,,,
Thanks,html.Screen,0_5,2021-03-14T00:29:41.684Z,,,,,,,,,,,,,,,,,,,,,,,,,,,,,,10762.290000018387,response,,,,,,,,,,continue,click button,,,,,,,,,59136.610000015935,59135.865000018384,48357.089,48366.24000000302,48373.575,64069.808,,,
Headphone screening,flow.Sequence,0,2021-03-14T00:29:41.684Z,,,,,,,,,,,,,,,,,,,,,,,,,,,,,,51078.238000018384,completion,,,,,,,,,,,,,,,,,,,,59136.8150000053,59135.865000018384,8024.3,8035.060000023805,8057.627,64069.808,,,
Demography form,html.Form,1_0,2021-03-14T00:29:57.391Z,,,,,,,,,,,,,,,,,,,,,,,,,21,,,,,10773.83200000642,form submission,,female,,,,,,,,,,,,,,,,,,74844.06000000308,74843.64000000642,64053.114,64063.715000025695,64069.808,74845.213,,,
Instructions,html.Page,1_1,2021-03-14T00:30:23.829Z,,,,,,,,,,,,,,,,,,,,,,,,,,,,,,26436.232000000527,form submission,,,,,,,,,,,,,,,,,,,,101281.8499999994,101281.44500000053,74828.593,74844.23500002595,74845.213,101283.407,,,
Holding screen,html.Screen,1_2_0_0,2021-03-14T00:30:30.820Z,,,,,,,,,,,,,,,,,,,,,,,,,,,,,,7005.729999999996,timeout,,,,,,,,,,,,,,,,,,,,108273.30000000075,108272.458,101266.756,101282.09000002244,101283.407,108289.137,,,
screen,html.Screen,1_2_0_1_0,2021-03-14T00:30:32.844Z,,,,,,,,,,,,,,,,53,,,,,,,,,,,,,,2003.088000011965,response,,,,99,,,,,,Space,keypress(Space),,,,,,,,When -- ----- -- ------ - ------- --- ----------<br>------------- ------ ------ ---- ---- ------- ----- -- ----<br>-------- ------- -- ---------- --- - --- ----- ----- ----<br>---- --- --- ----- --- ---- ---- ------- ----- ---- -------<br>--- --- -- ----- -- --- ---- -- --- ---- -- ------ ------<br>--- ----- -- ----,110296.61000001943,110292.22500001197,108272.458,108273.6600000062,108289.137,110307.37,,0,When
screen,html.Screen,1_2_0_1_1,2021-03-14T00:30:33.600Z,,,,,,,,,,,,,,,,53,,,,,,,,,,,,,,744.8550000212854,response,,,,99,,,,,,Space,keypress(Space),,,,,,,,---- it ----- -- ------ - ------- --- ----------<br>------------- ------ ------ ---- ---- ------- ----- -- ----<br>-------- ------- -- ---------- --- - --- ----- ----- ----<br>---- --- --- ----- --- ---- ---- ------- ----- ---- -------<br>--- --- -- ----- -- --- ---- -- --- ---- -- ------ ------<br>--- ----- -- ----,111053.01000000327,111052.22500002128,110290.734,110296.8899999978,110307.37,111058.051,,1,it
screen,html.Screen,1_2_0_1_2,2021-03-14T00:30:34.241Z,,,,,,,,,,,,,,,,53,,,,,,,,,,,,,,635.1140000042215,response,,,,99,,,,,,Space,keypress(Space),,,,,,,,---- -- comes -- ------ - ------- --- ----------<br>------------- ------ ------ ---- ---- ------- ----- -- ----<br>-------- ------- -- ---------- --- - --- ----- ----- ----<br>---- --- --- ----- --- ---- ---- ------- ----- ---- -------<br>--- --- -- ----- -- --- ---- -- --- ---- -- ------ ------<br>--- ----- -- ----,111694.04000000213,111693.16500000423,111041.367,111053.24000000837,111058.051,111708.621,,2,comes
screen,html.Screen,1_2_0_1_3,2021-03-14T00:30:34.800Z,,,,,,,,,,,,,,,,53,,,,,,,,,,,,,,543.6040000038192,response,,,,99,,,,,,Space,keypress(Space),,,,,,,,---- -- ----- to ------ - ------- --- ----------<br>------------- ------ ------ ---- ---- ------- ----- -- ----<br>-------- ------- -- ---------- --- - --- ----- ----- ----<br>---- --- --- ----- --- ---- ---- ------- ----- ---- -------<br>--- --- -- ----- -- --- ---- -- --- ---- -- ------ ------<br>--- ----- -- ----,112253.05500000832,112252.22500000382,111691.89,111694.27000000724,111708.621,112259.026,,3,to
screen,html.Screen,1_2_0_1_4,2021-03-14T00:30:35.393Z,,,,,,,,,,,,,,,,53,,,,,,,,,,,,,,585.7840000096039,response,,,,99,,,,,,Space,keypress(Space),,,,,,,,---- -- ----- -- having - ------- --- ----------<br>------------- ------ ------ ---- ---- ------- ----- -- ----<br>-------- ------- -- ---------- --- - --- ----- ----- ----<br>---- --- --- ----- --- ---- ---- ------- ----- ---- -------<br>--- --- -- ----- -- --- ---- -- --- ---- -- ------ ------<br>--- ----- -- ----,112845.54500001832,112844.8100000096,112242.335,112253.28500001342,112259.026,112859.493,,4,having
screen,html.Screen,1_2_0_1_5,2021-03-14T00:30:35.952Z,,,,,,,,,,,,,,,,53,,,,,,,,,,,,,,544.7170000078768,response,,,,99,,,,,,Space,keypress(Space),,,,,,,,---- -- ----- -- ------ a ------- --- ----------<br>------------- ------ ------ ---- ---- ------- ----- -- ----<br>-------- ------- -- ---------- --- - --- ----- ----- ----<br>---- --- --- ----- --- ---- ---- ------- ----- ---- -------<br>--- --- -- ----- -- --- ---- -- --- ---- -- ------ ------<br>--- ----- -- ----,113404.95500000543,113404.21000000788,112842.818,112845.78500001226,112859.493,113409.961,,5,a
screen,html.Screen,1_2_0_1_6,2021-03-14T00:30:36.536Z,,,,,,,,,,,,,,,,53,,,,,,,,,,,,,,578.2940000038507,response,,,,99,,,,,,Space,keypress(Space),,,,,,,,---- -- ----- -- ------ - lasting --- ----------<br>------------- ------ ------ ---- ---- ------- ----- -- ----<br>-------- ------- -- ---------- --- - --- ----- ----- ----<br>---- --- --- ----- --- ---- ---- ------- ----- ---- -------<br>--- --- -- ----- -- --- ---- -- --- ---- -- ------ ------<br>--- ----- -- ----,113989.0450000239,113988.25500000385,113393.267,113405.1900000195,113409.961,113993.676,,6,lasting
screen,html.Screen,1_2_0_1_7,2021-03-14T00:30:37.041Z,,,,,,,,,,,,,,,,53,,,,,,,,,,,,,,499.12400000725756,response,,,,99,,,,,,Space,keypress(Space),,,,,,,,---- -- ----- -- ------ - ------- and ----------<br>------------- ------ ------ ---- ---- ------- ----- -- ----<br>-------- ------- -- ---------- --- - --- ----- ----- ----<br>---- --- --- ----- --- ---- ---- ------- ----- ---- -------<br>--- --- -- ----- -- --- ---- -- --- ---- -- ------ ------<br>--- ----- -- ----,114493.58000000939,114492.80000000726,113977.018,113989.28000000888,113993.676,114510.843,,7,and
screen,html.Screen,1_2_0_1_8,2021-03-14T00:30:37.752Z,,,,,,,,,,,,,,,,53,,,,,,,,,,,,,,693.4370000053896,response,,,,99,,,,,,Space,keypress(Space),,,,,,,,---- -- ----- -- ------ - ------- --- fulfilling<br>------------- ------ ------ ---- ---- ------- ----- -- ----<br>-------- ------- -- ---------- --- - --- ----- ----- ----<br>---- --- --- ----- --- ---- ---- ------- ----- ---- -------<br>--- --- -- ----- -- --- ---- -- --- ---- -- ------ ------<br>--- ----- -- ----,115205.11500001885,115204.28000000538,114494.165,114493.81500002346,114510.843,115211.432,,8,fulfilling
screen,html.Screen,1_2_0_1_9,2021-03-14T00:30:38.544Z,,,,,,,,,,,,,,,,53,,,,,,,,,,,,,,784.79800001884,response,,,,99,,,,,,Space,keypress(Space),,,,,,,,"---- -- ----- -- ------ - ------- --- ----------<br>relationship, ------ ------ ---- ---- ------- ----- -- ----<br>-------- ------- -- ---------- --- - --- ----- ----- ----<br>---- --- --- ----- --- ---- ---- ------- ----- ---- -------<br>--- --- -- ----- -- --- ---- -- --- ---- -- ------ ------<br>--- ----- -- ----",115996.97000000742,115996.23000001884,115194.738,115205.34500002395,115211.432,116012.12,,9,"relationship,"
screen,html.Screen,1_2_0_1_10,2021-03-14T00:30:39.248Z,,,,,,,,,,,,,,,,53,,,,,,,,,,,,,,688.2000000035623,response,,,,99,,,,,,Space,keypress(Space),,,,,,,,---- -- ----- -- ------ - ------- --- ----------<br>------------- common ------ ---- ---- ------- ----- -- ----<br>-------- ------- -- ---------- --- - --- ----- ----- ----<br>---- --- --- ----- --- ---- ---- ------- ----- ---- -------<br>--- --- -- ----- -- --- ---- -- --- ---- -- ------ ------<br>--- ----- -- ----,116701.16500000586,116700.32000000356,115995.381,115997.20000001253,116012.12,116712.596,,10,common
screen,html.Screen,1_2_0_1_11,2021-03-14T00:30:39.888Z,,,,,,,,,,,,,,,,53,,,,,,,,,,,,,,627.6440000195435,response,,,,99,,,,,,Space,keypress(Space),,,,,,,,---- -- ----- -- ------ - ------- --- ----------<br>------------- ------ wisdom ---- ---- ------- ----- -- ----<br>-------- ------- -- ---------- --- - --- ----- ----- ----<br>---- --- --- ----- --- ---- ---- ------- ----- ---- -------<br>--- --- -- ----- -- --- ---- -- --- ---- -- ------ ------<br>--- ----- -- ----,117341.07000002405,117340.24000001955,116695.95,116701.4500000223,116712.596,117346.489,,11,wisdom
screen,html.Screen,1_2_0_1_12,2021-03-14T00:30:40.584Z,,,,,,,,,,,,,,,,53,,,,,,,,,,,,,,689.7810000114259,response,,,,99,,,,,,Space,keypress(Space),,,,,,,,---- -- ----- -- ------ - ------- --- ----------<br>------------- ------ ------ says ---- ------- ----- -- ----<br>-------- ------- -- ---------- --- - --- ----- ----- ----<br>---- --- --- ----- --- ---- ---- ------- ----- ---- -------<br>--- --- -- ----- -- --- ---- -- --- ---- -- ------ ------<br>--- ----- -- ----,118037.07500000019,118036.27000001143,117329.794,117341.31499999785,117346.489,118047.043,,12,says
screen,html.Screen,1_2_0_1_13,2021-03-14T00:30:41.256Z,,,,,,,,,,,,,,,,53,,,,,,,,,,,,,,661.1820000094012,response,,,,99,,,,,,Space,keypress(Space),,,,,,,,---- -- ----- -- ------ - ------- --- ----------<br>------------- ------ ------ ---- that ------- ----- -- ----<br>-------- ------- -- ---------- --- - --- ----- ----- ----<br>---- --- --- ----- --- ---- ---- ------- ----- ---- -------<br>--- --- -- ----- -- --- ---- -- --- ---- -- ------ ------<br>--- ----- -- ----,118708.9950000227,118708.2250000094,118030.364,118037.30500000529,118047.043,118714.272,,13,that
screen,html.Screen,1_2_0_1_14,2021-03-14T00:30:41.840Z,,,,,,,,,,,,,,,,53,,,,,,,,,,,,,,578.0130000031786,response,,,,99,,,,,,Space,keypress(Space),,,,,,,,---- -- ----- -- ------ - ------- --- ----------<br>------------- ------ ------ ---- ---- feeling ----- -- ----<br>-------- ------- -- ---------- --- - --- ----- ----- ----<br>---- --- --- ----- --- ---- ---- ------- ----- ---- -------<br>--- --- -- ----- -- --- ---- -- --- ---- -- ------ ------<br>--- ----- -- ----,119293.08500001207,119292.28500000318,118697.576,118709.23500001663,118714.272,119298.071,,14,feeling
screen,html.Screen,1_2_0_1_15,2021-03-14T00:30:42.488Z,,,,,,,,,,,,,,,,53,,,,,,,,,,,,,,642.1790000142064,response,,,,99,,,,,,Space,keypress(Space),,,,,,,,---- -- ----- -- ------ - ------- --- ----------<br>------------- ------ ------ ---- ---- ------- close -- ----<br>-------- ------- -- ---------- --- - --- ----- ----- ----<br>---- --- --- ----- --- ---- ---- ------- ----- ---- -------<br>--- --- -- ----- -- --- ---- -- --- ---- -- ------ ------<br>--- ----- -- ----,119940.99000000278,119940.2500000142,119281.398,119293.325000006,119298.071,119948.561,,15,close
screen,html.Screen,1_2_0_1_16,2021-03-14T00:30:43.041Z,,,,,,,,,,,,,,,,53,,,,,,,,,,,,,,543.7140000259824,response,,,,99,,,,,,Space,keypress(Space),,,,,,,,---- -- ----- -- ------ - ------- --- ----------<br>------------- ------ ------ ---- ---- ------- ----- to ----<br>-------- ------- -- ---------- --- - --- ----- ----- ----<br>---- --- --- ----- --- ---- ---- ------- ----- ---- -------<br>--- --- -- ----- -- --- ---- -- --- ---- -- ------ ------<br>--- ----- -- ----,120493.054999999,120492.27500002598,119931.863,119941.23000002583,119948.561,120499.015,,16,to
screen,html.Screen,1_2_0_1_17,2021-03-14T00:30:43.609Z,,,,,,,,,,,,,,,,53,,,,,,,,,,,,,,561.2650000051508,response,,,,99,,,,,,Space,keypress(Space),,,,,,,,---- -- ----- -- ------ - ------- --- ----------<br>------------- ------ ------ ---- ---- ------- ----- -- your<br>-------- ------- -- ---------- --- - --- ----- ----- ----<br>---- --- --- ----- --- ---- ---- ------- ----- ---- -------<br>--- --- -- ----- -- --- ---- -- --- ---- -- ------ ------<br>--- ----- -- ----,121061.07500000508,121060.28000000515,120482.372,120493.29000001308,120499.015,121066.197,,17,your
screen,html.Screen,1_2_0_1_18,2021-03-14T00:30:44.233Z,,,,,,,,,,,,,,,,53,,,,,,,,,,,,,,618.0030000178813,response,,,,99,,,,,,Space,keypress(Space),,,,,,,,---- -- ----- -- ------ - ------- --- ----------<br>------------- ------ ------ ---- ---- ------- ----- -- ----<br>romantic ------- -- ---------- --- - --- ----- ----- ----<br>---- --- --- ----- --- ---- ---- ------- ----- ---- -------<br>--- --- -- ----- -- --- ---- -- --- ---- -- ------ ------<br>--- ----- -- ----,121685.09000001359,121684.20000001788,121049.473,121061.32000000798,121066.197,121700.032,,18,romantic
screen,html.Screen,1_2_0_1_19,2021-03-14T00:30:44.898Z,,,,,,,,,,,,,,,,53,,,,,,,,,,,,,,649.0630000123056,response,,,,99,,,,,,Space,keypress(Space),,,,,,,,---- -- ----- -- ------ - ------- --- ----------<br>------------- ------ ------ ---- ---- ------- ----- -- ----<br>-------- partner -- ---------- --- - --- ----- ----- ----<br>---- --- --- ----- --- ---- ---- ------- ----- ---- -------<br>--- --- -- ----- -- --- ---- -- --- ---- -- ------ ------<br>--- ----- -- ----,122349.96500000125,122349.09500001231,121683.351,121685.31000000075,121700.032,122367.283,,19,partner
screen,html.Screen,1_2_0_1_20,2021-03-14T00:30:45.417Z,,,,,,,,,,,,,,,,53,,,,,,,,,,,,,,500.87700001272606,response,,,,99,,,,,,Space,keypress(Space),,,,,,,,---- -- ----- -- ------ - ------- --- ----------<br>------------- ------ ------ ---- ---- ------- ----- -- ----<br>-------- ------- is ---------- --- - --- ----- ----- ----<br>---- --- --- ----- --- ---- ---- ------- ----- ---- -------<br>--- --- -- ----- -- --- ---- -- --- ---- -- ------ ------<br>--- ----- -- ----,122868.92000000807,122868.16000001272,122350.543,122350.21500001312,122367.283,122884.37,,20,is
screen,html.Screen,1_2_0_1_21,2021-03-14T00:30:45.953Z,,,,,,,,,,,,,,,,53,,,,,,,,,,,,,,519.8400000078836,response,,,,99,,,,,,Space,keypress(Space),,,,,,,,---- -- ----- -- ------ - ------- --- ----------<br>------------- ------ ------ ---- ---- ------- ----- -- ----<br>-------- ------- -- paramount. --- - --- ----- ----- ----<br>---- --- --- ----- --- ---- ---- ------- ----- ---- -------<br>--- --- -- ----- -- --- ---- -- --- ---- -- ------ ------<br>--- ----- -- ----,123405.01000001677,123404.21000000788,122867.634,122869.15500002215,122884.37,123418.08,,21,paramount.
screen,html.Screen,1_2_0_1_22,2021-03-14T00:30:46.529Z,,,,,,,,,,,,,,,,53,,,,,,,,,,,,,,562.2000000179542,response,,,,99,,,,,,Space,keypress(Space),,,,,,,,---- -- ----- -- ------ - ------- --- ----------<br>------------- ------ ------ ---- ---- ------- ----- -- ----<br>-------- ------- -- ---------- But - --- ----- ----- ----<br>---- --- --- ----- --- ---- ---- ------- ----- ---- -------<br>--- --- -- ----- -- --- ---- -- --- ---- -- ------ ------<br>--- ----- -- ----,123981.10500001349,123980.28000001796,123401.397,123405.24000002188,123418.08,123985.224,,22,But
screen,html.Screen,1_2_0_1_23,2021-03-14T00:30:47.018Z,,,,,,,,,,,,,,,,53,,,,,,,,,,,,,,484.01100002594467,response,,,,99,,,,,,Space,keypress(Space),,,,,,,,---- -- ----- -- ------ - ------- --- ----------<br>------------- ------ ------ ---- ---- ------- ----- -- ----<br>-------- ------- -- ---------- --- a --- ----- ----- ----<br>---- --- --- ----- --- ---- ---- ------- ----- ---- -------<br>--- --- -- ----- -- --- ---- -- --- ---- -- ------ ------<br>--- ----- -- ----,124469.92500001215,124469.23500002595,123968.53,123981.34500000742,123985.224,124485.654,,23,a
screen,html.Screen,1_2_0_1_24,2021-03-14T00:30:47.601Z,,,,,,,,,,,,,,,,53,,,,,,,,,,,,,,566.5760000011505,response,,,,99,,,,,,Space,keypress(Space),,,,,,,,---- -- ----- -- ------ - ------- --- ----------<br>------------- ------ ------ ---- ---- ------- ----- -- ----<br>-------- ------- -- ---------- --- - new ----- ----- ----<br>---- --- --- ----- --- ---- ---- ------- ----- ---- -------<br>--- --- -- ----- -- --- ---- -- --- ---- -- ------ ------<br>--- ----- -- ----,125052.99500000547,125052.23000000115,124468.936,124470.15999999712,124485.654,125069.466,,24,new
screen,html.Screen,1_2_0_1_25,2021-03-14T00:30:48.161Z,,,,,,,,,,,,,,,,53,,,,,,,,,,,,,,542.7990000033897,response,,,,99,,,,,,Space,keypress(Space),,,,,,,,---- -- ----- -- ------ - ------- --- ----------<br>------------- ------ ------ ---- ---- ------- ----- -- ----<br>-------- ------- -- ---------- --- - --- study ----- ----<br>---- --- --- ----- --- ---- ---- ------- ----- ---- -------<br>--- --- -- ----- -- --- ---- -- --- ---- -- ------ ------<br>--- ----- -- ----,125612.99000002327,125612.26500000339,125052.746,125053.22500001057,125069.466,125619.809,,25,study
screen,html.Screen,1_2_0_1_26,2021-03-14T00:30:48.769Z,,,,,,,,,,,,,,,,53,,,,,,,,,,,,,,600.3359999993263,response,,,,99,,,,,,Space,keypress(Space),,,,,,,,---- -- ----- -- ------ - ------- --- ----------<br>------------- ------ ------ ---- ---- ------- ----- -- ----<br>-------- ------- -- ---------- --- - --- ----- finds ----<br>---- --- --- ----- --- ---- ---- ------- ----- ---- -------<br>--- --- -- ----- -- --- ---- -- --- ---- -- ------ ------<br>--- ----- -- ----,126220.91000000364,126220.14499999932,125603.188,125613.21999999927,125619.809,126237.094,,26,finds
screen,html.Screen,1_2_0_1_27,2021-03-14T00:30:49.257Z,,,,,,,,,,,,,,,,53,,,,,,,,,,,,,,471.1060000227735,response,,,,99,,,,,,Space,keypress(Space),,,,,,,,---- -- ----- -- ------ - ------- --- ----------<br>------------- ------ ------ ---- ---- ------- ----- -- ----<br>-------- ------- -- ---------- --- - --- ----- ----- that<br>---- --- --- ----- --- ---- ---- ------- ----- ---- -------<br>--- --- -- ----- -- --- ---- -- --- ---- -- ------ ------<br>--- ----- -- ----,126709.02000000933,126708.20000002277,126220.354,126221.14999999758,126237.094,126720.74,,27,that
screen,html.Screen,1_2_0_1_28,2021-03-14T00:30:49.897Z,,,,,,,,,,,,,,,,53,,,,,,,,,,,,,,627.4600000076316,response,,,,99,,,,,,Space,keypress(Space),,,,,,,,---- -- ----- -- ------ - ------- --- ----------<br>------------- ------ ------ ---- ---- ------- ----- -- ----<br>-------- ------- -- ---------- --- - --- ----- ----- ----<br>it's --- --- ----- --- ---- ---- ------- ----- ---- -------<br>--- --- -- ----- -- --- ---- -- --- ---- -- ------ ------<br>--- ----- -- ----,127348.96000000299,127348.20000000764,126704.087,126709.26000000327,126720.74,127354.596,,28,it's
screen,html.Screen,1_2_0_1_29,2021-03-14T00:30:50.497Z,,,,,,,,,,,,,,,,53,,,,,,,,,,,,,,593.6439999978902,response,,,,99,,,,,,Space,keypress(Space),,,,,,,,---- -- ----- -- ------ - ------- --- ----------<br>------------- ------ ------ ---- ---- ------- ----- -- ----<br>-------- ------- -- ---------- --- - --- ----- ----- ----<br>---- not --- ----- --- ---- ---- ------- ----- ---- -------<br>--- --- -- ----- -- --- ---- -- --- ---- -- ------ ------<br>--- ----- -- ----,127949.0700000024,127948.2399999979,127337.932,127349.19500001706,127354.596,127955.078,,29,not
screen,html.Screen,1_2_0_1_30,2021-03-14T00:30:51.033Z,,,,,,,,,,,,,,,,53,,,,,,,,,,,,,,529.1870000064227,response,,,,99,,,,,,Space,keypress(Space),,,,,,,,---- -- ----- -- ------ - ------- --- ----------<br>------------- ------ ------ ---- ---- ------- ----- -- ----<br>-------- ------- -- ---------- --- - --- ----- ----- ----<br>---- --- how ----- --- ---- ---- ------- ----- ---- -------<br>--- --- -- ----- -- --- ---- -- --- ---- -- ------ ------<br>--- ----- -- ----,128484.99500000617,128484.26500000642,127938.38,127949.30500001647,127955.078,128488.883,,30,how
screen,html.Screen,1_2_0_1_31,2021-03-14T00:30:51.585Z,,,,,,,,,,,,,,,,53,,,,,,,,,,,,,,547.367000004655,response,,,,99,,,,,,Space,keypress(Space),,,,,,,,---- -- ----- -- ------ - ------- --- ----------<br>------------- ------ ------ ---- ---- ------- ----- -- ----<br>-------- ------- -- ---------- --- - --- ----- ----- ----<br>---- --- --- close --- ---- ---- ------- ----- ---- -------<br>--- --- -- ----- -- --- ---- -- --- ---- -- ------ ------<br>--- ----- -- ----,129037.00000001118,129036.25000000466,128472.186,128485.22500001127,128488.883,129039.33,,31,close
screen,html.Screen,1_2_0_1_32,2021-03-14T00:30:52.105Z,,,,,,,,,,,,,,,,53,,,,,,,,,,,,,,516.9400000009482,response,,,,99,,,,,,Space,keypress(Space),,,,,,,,---- -- ----- -- ------ - ------- --- ----------<br>------------- ------ ------ ---- ---- ------- ----- -- ----<br>-------- ------- -- ---------- --- - --- ----- ----- ----<br>---- --- --- ----- you ---- ---- ------- ----- ---- -------<br>--- --- -- ----- -- --- ---- -- --- ---- -- ------ ------<br>--- ----- -- ----,129557.0149999985,129556.27000000095,129022.638,129037.23500002525,129039.33,129573.137,,32,you
screen,html.Screen,1_2_0_1_33,2021-03-14T00:30:52.617Z,,,,,,,,,,,,,,,,53,,,,,,,,,,,,,,495.0530000199651,response,,,,99,,,,,,Space,keypress(Space),,,,,,,,---- -- ----- -- ------ - ------- --- ----------<br>------------- ------ ------ ---- ---- ------- ----- -- ----<br>-------- ------- -- ---------- --- - --- ----- ----- ----<br>---- --- --- ----- --- feel ---- ------- ----- ---- -------<br>--- --- -- ----- -- --- ---- -- --- ---- -- ------ ------<br>--- ----- -- ----,130068.98000001092,130068.19000001997,129556.403,129557.2450000036,129573.137,130073.507,,33,feel
screen,html.Screen,1_2_0_1_34,2021-03-14T00:30:53.137Z,,,,,,,,,,,,,,,,53,,,,,,,,,,,,,,514.6580000228569,response,,,,99,,,,,,Space,keypress(Space),,,,,,,,---- -- ----- -- ------ - ------- --- ----------<br>------------- ------ ------ ---- ---- ------- ----- -- ----<br>-------- ------- -- ---------- --- - --- ----- ----- ----<br>---- --- --- ----- --- ---- that ------- ----- ---- -------<br>--- --- -- ----- -- --- ---- -- --- ---- -- ------ ------<br>--- ----- -- ----,130588.9100000204,130588.16500002285,130056.808,130069.21000001603,130073.507,130621.741,,34,that
screen,html.Screen,1_2_0_1_35,2021-03-14T00:30:53.657Z,,,,,,,,,,,,,,,,53,,,,,,,,,,,,,,486.4740000147576,response,,,,99,,,,,,Space,keypress(Space),,,,,,,,---- -- ----- -- ------ - ------- --- ----------<br>------------- ------ ------ ---- ---- ------- ----- -- ----<br>-------- ------- -- ---------- --- - --- ----- ----- ----<br>---- --- --- ----- --- ---- ---- matters ----- ---- -------<br>--- --- -- ----- -- --- ---- -- --- ---- -- ------ ------<br>--- ----- -- ----,131108.98499999894,131108.21500001475,130573.853,130589.15500002331,130621.741,131124.346,,35,matters
screen,html.Screen,1_2_0_1_36,2021-03-14T00:30:54.193Z,,,,,,,,,,,,,,,,53,,,,,,,,,,,,,,519.9240000188875,response,,,,99,,,,,,Space,keypress(Space),,,,,,,,"---- -- ----- -- ------ - ------- --- ----------<br>------------- ------ ------ ---- ---- ------- ----- -- ----<br>-------- ------- -- ---------- --- - --- ----- ----- ----<br>---- --- --- ----- --- ---- ---- ------- most, ---- -------<br>--- --- -- ----- -- --- ---- -- --- ---- -- ------ ------<br>--- ----- -- ----",131645.07500000764,131644.27000001888,131107.661,131109.21500000404,131124.346,131658.059,,36,"most,"
screen,html.Screen,1_2_0_1_37,2021-03-14T00:30:54.697Z,,,,,,,,,,,,,,,,53,,,,,,,,,,,,,,490.19600000733044,response,,,,99,,,,,,Space,keypress(Space),,,,,,,,---- -- ----- -- ------ - ------- --- ----------<br>------------- ------ ------ ---- ---- ------- ----- -- ----<br>-------- ------- -- ---------- --- - --- ----- ----- ----<br>---- --- --- ----- --- ---- ---- ------- ----- it's -------<br>--- --- -- ----- -- --- ---- -- --- ---- -- ------ ------<br>--- ----- -- ----,132149.02500002063,132148.25500000734,131641.427,131645.32000001054,131658.059,132158.52,,37,it's
screen,html.Screen,1_2_0_1_38,2021-03-14T00:30:55.234Z,,,,,,,,,,,,,,,,53,,,,,,,,,,,,,,526.560000024765,response,,,,99,,,,,,Space,keypress(Space),,,,,,,,---- -- ----- -- ------ - ------- --- ----------<br>------------- ------ ------ ---- ---- ------- ----- -- ----<br>-------- ------- -- ---------- --- - --- ----- ----- ----<br>---- --- --- ----- --- ---- ---- ------- ----- ---- whether<br>--- --- -- ----- -- --- ---- -- --- ---- -- ------ ------<br>--- ----- -- ----,132685.94000002486,132685.08000002475,132141.839,132149.25000001676,132158.52,132692.213,,38,whether
screen,html.Screen,1_2_0_1_39,2021-03-14T00:30:55.754Z,,,,,,,,,,,,,,,,53,,,,,,,,,,,,,,513.2370000085793,response,,,,99,,,,,,Space,keypress(Space),,,,,,,,---- -- ----- -- ------ - ------- --- ----------<br>------------- ------ ------ ---- ---- ------- ----- -- ----<br>-------- ------- -- ---------- --- - --- ----- ----- ----<br>---- --- --- ----- --- ---- ---- ------- ----- ---- -------<br>you --- -- ----- -- --- ---- -- --- ---- -- ------ ------<br>--- ----- -- ----,133206.2150000129,133205.45000000857,132675.609,132686.18499999866,132692.213,133209.395,,39,you
screen,html.Screen,1_2_0_1_40,2021-03-14T00:30:56.297Z,,,,,,,,,,,,,,,,53,,,,,,,,,,,,,,538.7699999972538,response,,,,99,,,,,,Space,keypress(Space),,,,,,,,---- -- ----- -- ------ - ------- --- ----------<br>------------- ------ ------ ---- ---- ------- ----- -- ----<br>-------- ------- -- ---------- --- - --- ----- ----- ----<br>---- --- --- ----- --- ---- ---- ------- ----- ---- -------<br>--- are -- ----- -- --- ---- -- --- ---- -- ------ ------<br>--- ----- -- ----,133748.91500000376,133748.16499999724,133192.549,133206.44999999786,133209.395,133759.808,,40,are
screen,html.Screen,1_2_0_1_41,2021-03-14T00:30:56.809Z,,,,,,,,,,,,,,,,53,,,,,,,,,,,,,,500.3670000030834,response,,,,99,,,,,,Space,keypress(Space),,,,,,,,---- -- ----- -- ------ - ------- --- ----------<br>------------- ------ ------ ---- ---- ------- ----- -- ----<br>-------- ------- -- ---------- --- - --- ----- ----- ----<br>---- --- --- ----- --- ---- ---- ------- ----- ---- -------<br>--- --- as ----- -- --- ---- -- --- ---- -- ------ ------<br>--- ----- -- ----,134260.96000001417,134260.17500000307,133743.14,133749.14500000887,133759.808,134276.957,,41,as
screen,html.Screen,1_2_0_1_42,2021-03-14T00:30:57.361Z,,,,,,,,,,,,,,,,53,,,,,,,,,,,,,,535.2280000170576,response,,,,99,,,,,,Space,keypress(Space),,,,,,,,---- -- ----- -- ------ - ------- --- ----------<br>------------- ------ ------ ---- ---- ------- ----- -- ----<br>-------- ------- -- ---------- --- - --- ----- ----- ----<br>---- --- --- ----- --- ---- ---- ------- ----- ---- -------<br>--- --- -- close -- --- ---- -- --- ---- -- ------ ------<br>--- ----- -- ----,134812.87500000326,134812.18500001705,134260.224,134261.19499999913,134276.957,134827.395,,42,close
screen,html.Screen,1_2_0_1_43,2021-03-14T00:30:57.857Z,,,,,,,,,,,,,,,,53,,,,,,,,,,,,,,480.78500002183137,response,,,,99,,,,,,Space,keypress(Space),,,,,,,,---- -- ----- -- ------ - ------- --- ----------<br>------------- ------ ------ ---- ---- ------- ----- -- ----<br>-------- ------- -- ---------- --- - --- ----- ----- ----<br>---- --- --- ----- --- ---- ---- ------- ----- ---- -------<br>--- --- -- ----- as --- ---- -- --- ---- -- ------ ------<br>--- ----- -- ----,135308.96000002394,135308.18000002182,134810.669,134813.12000000617,134827.395,135311.089,,43,as
screen,html.Screen,1_2_0_1_44,2021-03-14T00:30:58.305Z,,,,,,,,,,,,,,,,53,,,,,,,,,,,,,,445.7810000119789,response,,,,99,,,,,,Space,keypress(Space),,,,,,,,---- -- ----- -- ------ - ------- --- ----------<br>------------- ------ ------ ---- ---- ------- ----- -- ----<br>-------- ------- -- ---------- --- - --- ----- ----- ----<br>---- --- --- ----- --- ---- ---- ------- ----- ---- -------<br>--- --- -- ----- -- you ---- -- --- ---- -- ------ ------<br>--- ----- -- ----,135757.55000000936,135756.870000012,135294.401,135309.18500002008,135311.089,135761.455,,44,you
screen,html.Screen,1_2_0_1_45,2021-03-14T00:30:58.841Z,,,,,,,,,,,,,,,,53,,,,,,,,,,,,,,530.7250000185741,response,,,,99,,,,,,Space,keypress(Space),,,,,,,,---- -- ----- -- ------ - ------- --- ----------<br>------------- ------ ------ ---- ---- ------- ----- -- ----<br>-------- ------- -- ---------- --- - --- ----- ----- ----<br>---- --- --- ----- --- ---- ---- ------- ----- ---- -------<br>--- --- -- ----- -- --- want -- --- ---- -- ------ ------<br>--- ----- -- ----,136293.02500002086,136292.18000001856,135744.755,135757.7900000033,135761.455,136295.225,,45,want
screen,html.Screen,1_2_0_1_46,2021-03-14T00:30:59.321Z,,,,,,,,,,,,,,,,53,,,,,,,,,,,,,,476.96500001786626,response,,,,99,,,,,,Space,keypress(Space),,,,,,,,---- -- ----- -- ------ - ------- --- ----------<br>------------- ------ ------ ---- ---- ------- ----- -- ----<br>-------- ------- -- ---------- --- - --- ----- ----- ----<br>---- --- --- ----- --- ---- ---- ------- ----- ---- -------<br>--- --- -- ----- -- --- ---- to --- ---- -- ------ ------<br>--- ----- -- ----,136772.92499999749,136772.19000001787,136278.53,136293.26000000583,136295.225,136778.954,,46,to
screen,html.Screen,1_2_0_1_47,2021-03-14T00:30:59.873Z,,,,,,,,,,,,,,,,53,,,,,,,,,,,,,,545.2910000252596,response,,,,99,,,,,,Space,keypress(Space),,,,,,,,"---- -- ----- -- ------ - ------- --- ----------<br>------------- ------ ------ ---- ---- ------- ----- -- ----<br>-------- ------- -- ---------- --- - --- ----- ----- ----<br>---- --- --- ----- --- ---- ---- ------- ----- ---- -------<br>--- --- -- ----- -- --- ---- -- be, ---- -- ------ ------<br>--- ----- -- ----",137325.0050000206,137324.24500002526,136762.27,136773.1550000026,136778.954,137329.4,,47,"be,"
screen,html.Screen,1_2_0_1_48,2021-03-14T00:31:00.353Z,,,,,,,,,,,,,,,,53,,,,,,,,,,,,,,474.8249999998661,response,,,,99,,,,,,Space,keypress(Space),,,,,,,,---- -- ----- -- ------ - ------- --- ----------<br>------------- ------ ------ ---- ---- ------- ----- -- ----<br>-------- ------- -- ---------- --- - --- ----- ----- ----<br>---- --- --- ----- --- ---- ---- ------- ----- ---- -------<br>--- --- -- ----- -- --- ---- -- --- even -- ------ ------<br>--- ----- -- ----,137805.01000001095,137804.22499999986,137312.67,137325.26000001235,137329.4,137813.04,,48,even
screen,html.Screen,1_2_0_1_49,2021-03-14T00:31:00.865Z,,,,,,,,,,,,,,,,53,,,,,,,,,,,,,,503.14500000330736,response,,,,99,,,,,,Space,keypress(Space),,,,,,,,---- -- ----- -- ------ - ------- --- ----------<br>------------- ------ ------ ---- ---- ------- ----- -- ----<br>-------- ------- -- ---------- --- - --- ----- ----- ----<br>---- --- --- ----- --- ---- ---- ------- ----- ---- -------<br>--- --- -- ----- -- --- ---- -- --- ---- if ------ ------<br>--- ----- -- ----,138316.9700000144,138316.18500000332,137796.432,137805.2500000049,137813.04,138330.201,,49,if
screen,html.Screen,1_2_0_1_50,2021-03-14T00:31:01.353Z,,,,,,,,,,,,,,,,53,,,,,,,,,,,,,,474.0140000110259,response,,,,99,,,,,,Space,keypress(Space),,,,,,,,---- -- ----- -- ------ - ------- --- ----------<br>------------- ------ ------ ---- ---- ------- ----- -- ----<br>-------- ------- -- ---------- --- - --- ----- ----- ----<br>---- --- --- ----- --- ---- ---- ------- ----- ---- -------<br>--- --- -- ----- -- --- ---- -- --- ---- -- that's ------<br>--- ----- -- ----,138804.97500000638,138804.21500001103,138313.518,138317.20499999938,138330.201,138813.878,,50,that's
screen,html.Screen,1_2_0_1_51,2021-03-14T00:31:01.857Z,,,,,,,,,,,,,,,,53,,,,,,,,,,,,,,494.8370000210416,response,,,,99,,,,,,Space,keypress(Space),,,,,,,,---- -- ----- -- ------ - ------- --- ----------<br>------------- ------ ------ ---- ---- ------- ----- -- ----<br>-------- ------- -- ---------- --- - --- ----- ----- ----<br>---- --- --- ----- --- ---- ---- ------- ----- ---- -------<br>--- --- -- ----- -- --- ---- -- --- ---- -- ------ really<br>--- ----- -- ----,139309.45500000962,139308.71500002104,138797.247,138805.20500001148,138813.878,139314.35,,51,really
screen,html.Screen,1_2_0_1_52,2021-03-14T00:31:02.329Z,,,,,,,,,,,,,,,,53,,,,,,,,,,,,,,465.83500001052744,response,,,,99,,,,,,Space,keypress(Space),,,,,,,,---- -- ----- -- ------ - ------- --- ----------<br>------------- ------ ------ ---- ---- ------- ----- -- ----<br>-------- ------- -- ---------- --- - --- ----- ----- ----<br>---- --- --- ----- --- ---- ---- ------- ----- ---- -------<br>--- --- -- ----- -- --- ---- -- --- ---- -- ------ ------<br>not ----- -- ----,139780.9450000059,139780.18500001053,139297.651,139309.6900000237,139314.35,139798.106,,52,not
screen,html.Screen,1_2_0_1_53,2021-03-14T00:31:02.793Z,,,,,,,,,,,,,,,,53,,,,,,,,,,,,,,446.1090000133554,response,,,,99,,,,,,Space,keypress(Space),,,,,,,,---- -- ----- -- ------ - ------- --- ----------<br>------------- ------ ------ ---- ---- ------- ----- -- ----<br>-------- ------- -- ---------- --- - --- ----- ----- ----<br>---- --- --- ----- --- ---- ---- ------- ----- ---- -------<br>--- --- -- ----- -- --- ---- -- --- ---- -- ------ ------<br>--- close -- ----,140244.99500001548,140244.21500001336,139781.376,139781.175000011,139798.106,140248.436,,53,close
screen,html.Screen,1_2_0_1_54,2021-03-14T00:31:03.249Z,,,,,,,,,,,,,,,,53,,,,,,,,,,,,,,451.7940000167582,response,,,,99,,,,,,Space,keypress(Space),,,,,,,,---- -- ----- -- ------ - ------- --- ----------<br>------------- ------ ------ ---- ---- ------- ----- -- ----<br>-------- ------- -- ---------- --- - --- ----- ----- ----<br>---- --- --- ----- --- ---- ---- ------- ----- ---- -------<br>--- --- -- ----- -- --- ---- -- --- ---- -- ------ ------<br>--- ----- at ----,140701.01000001887,140700.23000001675,140231.751,140245.21500000264,140248.436,140715.523,,54,at
screen,html.Screen,1_2_0_1_55,2021-03-14T00:31:03.897Z,,,,,,,,,,,,,,,,53,,,,,,,,,,,,,,632.7070000032545,response,,,,99,,,,,,Space,keypress(Space),,,,,,,,---- -- ----- -- ------ - ------- --- ----------<br>------------- ------ ------ ---- ---- ------- ----- -- ----<br>-------- ------- -- ---------- --- - --- ----- ----- ----<br>---- --- --- ----- --- ---- ---- ------- ----- ---- -------<br>--- --- -- ----- -- --- ---- -- --- ---- -- ------ ------<br>--- ----- -- all.,141349.00000001653,141348.23000000324,140698.794,140701.24500000384,140715.523,141366.015,,55,all.
Item 99,flow.Loop,1_2_0_1,2021-03-14T00:31:03.897Z,,,,,,,,,,,,,,,,,,,,,,,,,,,,,,33059.09300000324,completion,,,,,A,,,,,,,,,,silence,,,,,141349.44499999983,141348.23000000324,108272.458,108273.56500001042,108289.137,141366.015,,,
Question 1,html.Screen,1_2_0_2,2021-03-14T00:31:09.557Z,,,,,,,,,,,,,,,,,,,,,,,,,,,true,FALSE,,5641.895000014803,response,,,,99,A,,,,,FALSE,click #choice-2,,,,silence,,,,,147008.75500001712,147007.91000001482,141349.319,141349.6500000183,141366.015,147020.447,,,
Question 2,html.Screen,1_2_0_3,2021-03-14T00:31:24.685Z,,,,,,,,,,,,,,,,,,,,,,,,,,,false,TRUE,,15115.593000012159,response,,,,99,A,,,,,FALSE,click #choice-2,,,,silence,,,,,162136.80500001647,162136.04000001214,147003.928,147008.88999999734,147020.447,162149.437,,,
Item 99,flow.Sequence,1_2_0,2021-03-14T00:31:24.685Z,,,,,,,,,,,,,,,,,,,,,,,,,,,,,,60852.63300001214,completion,,,,,,,,,,,,,,,,,,,,162136.98999999906,162136.04000001214,101266.756,101282.05500001786,101283.407,162149.437,,,
Holding screen,html.Screen,1_2_1_0,2021-03-14T00:31:31.687Z,,,,,,,,,,,,,,,,,,,,,,,,,,,,,,7005.793000000005,timeout,,,,,,,,,,,,,,,,,,,,169139.3950000056,169138.58,162132.937,162137.11500001955,162149.437,169155.23,,,
screen,html.Screen,1_2_1_1_0,2021-03-14T00:31:33.697Z,,,,,,,,,,,,,,,,54,,,,,,,,,,,,,,1993.0750000097032,response,,,,100,,,,,,Space,keypress(Space),,,,,,,,At --- ---- --- ------ ----- ------- ---- -- --- ------- --<br>------- ---------- ------ -- ----- -- ----- -- ---- ------<br>--- ----- --- --- ------ -------- ----- --- ------ ----- --<br>----- ----- ---------- --- --- ------ ------ ---- -- ------<br>------- --- ------ ----- --- ---- ------- -- ---- --- --<br>------- ------,171149.15500002098,171148.3050000097,169138.58,169139.77500001783,169155.23,171156.846,,0,At
screen,html.Screen,1_2_1_1_1,2021-03-14T00:31:34.329Z,,,,,,,,,,,,,,,,54,,,,,,,,,,,,,,623.4640000019281,response,,,,100,,,,,,Space,keypress(Space),,,,,,,,-- the ---- --- ------ ----- ------- ---- -- --- ------- --<br>------- ---------- ------ -- ----- -- ----- -- ---- ------<br>--- ----- --- --- ------ -------- ----- --- ------ ----- --<br>----- ----- ---------- --- --- ------ ------ ---- -- ------<br>------- --- ------ ----- --- ---- ------- -- ---- --- --<br>------- ------,171781.21500002453,171780.31000000192,171140.182,171149.40500000375,171156.846,171790.63,,1,the
screen,html.Screen,1_2_1_1_2,2021-03-14T00:31:35.458Z,,,,,,,,,,,,,,,,54,,,,,,,,,,,,,,1118.515000012354,response,,,,100,,,,,,Space,keypress(Space),,,,,,,,-- --- time --- ------ ----- ------- ---- -- --- ------- --<br>------- ---------- ------ -- ----- -- ----- -- ---- ------<br>--- ----- --- --- ------ -------- ----- --- ------ ----- --<br>----- ----- ---------- --- --- ------ ------ ---- -- ------<br>------- --- ------ ----- --- ---- ------- -- ---- --- --<br>------- ------,172909.9550000101,172909.14500001236,171774.051,171781.45999999833,171790.63,172925.033,,2,time
screen,html.Screen,1_2_1_1_3,2021-03-14T00:31:35.937Z,,,,,,,,,,,,,,,,54,,,,,,,,,,,,,,463.19700001139427,response,,,,100,,,,,,Space,keypress(Space),,,,,,,,-- --- ---- the ------ ----- ------- ---- -- --- ------- --<br>------- ---------- ------ -- ----- -- ----- -- ---- ------<br>--- ----- --- --- ------ -------- ----- --- ------ ----- --<br>----- ----- ---------- --- --- ------ ------ ---- -- ------<br>------- --- ------ ----- --- ---- ------- -- ---- --- --<br>------- ------,173388.97500000894,173388.2300000114,172908.291,172910.1850000152,172925.033,173392.04,,3,the
screen,html.Screen,1_2_1_1_4,2021-03-14T00:31:36.625Z,,,,,,,,,,,,,,,,54,,,,,,,,,,,,,,684.3500000019849,response,,,,100,,,,,,Space,keypress(Space),,,,,,,,-- --- ---- --- French ----- ------- ---- -- --- ------- --<br>------- ---------- ------ -- ----- -- ----- -- ---- ------<br>--- ----- --- --- ------ -------- ----- --- ------ ----- --<br>----- ----- ---------- --- --- ------ ------ ---- -- ------<br>------- --- ------ ----- --- ---- ------- -- ---- --- --<br>------- ------,174077.1900000109,174076.390000002,173375.358,173389.19000001624,173392.04,174092.674,,4,French
screen,html.Screen,1_2_1_1_5,2021-03-14T00:31:37.337Z,,,,,,,,,,,,,,,,54,,,,,,,,,,,,,,695.5410000077682,response,,,,100,,,,,,Space,keypress(Space),,,,,,,,-- --- ---- --- ------ crown ------- ---- -- --- ------- --<br>------- ---------- ------ -- ----- -- ----- -- ---- ------<br>--- ----- --- --- ------ -------- ----- --- ------ ----- --<br>----- ----- ---------- --- --- ------ ------ ---- -- ------<br>------- --- ------ ----- --- ---- ------- -- ---- --- --<br>------- ------,174788.95000001648,174788.21500000777,174075.875,174077.42500002496,174092.674,174793.18,,5,crown
screen,html.Screen,1_2_1_1_6,2021-03-14T00:31:38.089Z,,,,,,,,,,,,,,,,54,,,,,,,,,,,,,,747.1600000068429,response,,,,100,,,,,,Space,keypress(Space),,,,,,,,-- --- ---- --- ------ ----- secured ---- -- --- ------- --<br>------- ---------- ------ -- ----- -- ----- -- ---- ------<br>--- ----- --- --- ------ -------- ----- --- ------ ----- --<br>----- ----- ---------- --- --- ------ ------ ---- -- ------<br>------- --- ------ ----- --- ---- ------- -- ---- --- --<br>------- ------,175541.115,175540.34000000684,174776.483,174789.17500001262,174793.18,175543.789,,6,secured
screen,html.Screen,1_2_1_1_7,2021-03-14T00:31:38.793Z,,,,,,,,,,,,,,,,54,,,,,,,,,,,,,,701.1010000017704,response,,,,100,,,,,,Space,keypress(Space),,,,,,,,-- --- ---- --- ------ ----- ------- much -- --- ------- --<br>------- ---------- ------ -- ----- -- ----- -- ---- ------<br>--- ----- --- --- ------ -------- ----- --- ------ ----- --<br>----- ----- ---------- --- --- ------ ------ ---- -- ------<br>------- --- ------ ----- --- ---- ------- -- ---- --- --<br>------- ------,176245.6050000037,176244.89000000176,175527.095,175541.34000002523,175543.789,176261.071,,7,much
screen,html.Screen,1_2_1_1_8,2021-03-14T00:31:39.537Z,,,,,,,,,,,,,,,,54,,,,,,,,,,,,,,727.2190000084229,response,,,,100,,,,,,Space,keypress(Space),,,,,,,,-- --- ---- --- ------ ----- ------- ---- of --- ------- --<br>------- ---------- ------ -- ----- -- ----- -- ---- ------<br>--- ----- --- --- ------ -------- ----- --- ------ ----- --<br>----- ----- ---------- --- --- ------ ------ ---- -- ------<br>------- --- ------ ----- --- ---- ------- -- ---- --- --<br>------- ------,176989.1400000197,176988.29000000842,176244.339,176245.84000001778,176261.071,176994.977,,8,of
screen,html.Screen,1_2_1_1_9,2021-03-14T00:31:40.201Z,,,,,,,,,,,,,,,,54,,,,,,,,,,,,,,657.3330000049318,response,,,,100,,,,,,Space,keypress(Space),,,,,,,,-- --- ---- --- ------ ----- ------- ---- -- its ------- --<br>------- ---------- ------ -- ----- -- ----- -- ---- ------<br>--- ----- --- --- ------ -------- ----- --- ------ ----- --<br>----- ----- ---------- --- --- ------ ------ ---- -- ------<br>------- --- ------ ----- --- ---- ------- -- ---- --- --<br>------- ------,177653.04500001366,177652.31000000495,176978.273,176990.71000001277,176994.977,177662.141,,9,its
screen,html.Screen,1_2_1_1_10,2021-03-14T00:31:40.889Z,,,,,,,,,,,,,,,,54,,,,,,,,,,,,,,678.1590000107535,response,,,,100,,,,,,Space,keypress(Space),,,,,,,,-- --- ---- --- ------ ----- ------- ---- -- --- revenue --<br>------- ---------- ------ -- ----- -- ----- -- ---- ------<br>--- ----- --- --- ------ -------- ----- --- ------ ----- --<br>----- ----- ---------- --- --- ------ ------ ---- -- ------<br>------- --- ------ ----- --- ---- ------- -- ---- --- --<br>------- ------,178341.14500001306,178340.30000001076,177645.489,177653.27500001877,177662.141,178346.082,,10,revenue
screen,html.Screen,1_2_1_1_11,2021-03-14T00:31:41.585Z,,,,,,,,,,,,,,,,54,,,,,,,,,,,,,,690.2380000138073,response,,,,100,,,,,,Space,keypress(Space),,,,,,,,-- --- ---- --- ------ ----- ------- ---- -- --- ------- by<br>------- ---------- ------ -- ----- -- ----- -- ---- ------<br>--- ----- --- --- ------ -------- ----- --- ------ ----- --<br>----- ----- ---------- --- --- ------ ------ ---- -- ------<br>------- --- ------ ----- --- ---- ------- -- ---- --- --<br>------- ------,179037.08500001812,179036.3200000138,178329.37,178341.36000002036,178346.082,179046.652,,11,by
screen,html.Screen,1_2_1_1_12,2021-03-14T00:31:42.345Z,,,,,,,,,,,,,,,,54,,,,,,,,,,,,,,749.7530000009574,response,,,,100,,,,,,Space,keypress(Space),,,,,,,,-- --- ---- --- ------ ----- ------- ---- -- --- ------- --<br>issuing ---------- ------ -- ----- -- ----- -- ---- ------<br>--- ----- --- --- ------ -------- ----- --- ------ ----- --<br>----- ----- ---------- --- --- ------ ------ ---- -- ------<br>------- --- ------ ----- --- ---- ------- -- ---- --- --<br>------- ------,179797.17000000528,179796.40500000096,179029.938,179037.3050000053,179046.652,179813.912,,12,issuing
screen,html.Screen,1_2_1_1_13,2021-03-14T00:31:43.105Z,,,,,,,,,,,,,,,,54,,,,,,,,,,,,,,742.3830000166781,response,,,,100,,,,,,Space,keypress(Space),,,,,,,,-- --- ---- --- ------ ----- ------- ---- -- --- ------- --<br>------- government ------ -- ----- -- ----- -- ---- ------<br>--- ----- --- --- ------ -------- ----- --- ------ ----- --<br>----- ----- ---------- --- --- ------ ------ ---- -- ------<br>------- --- ------ ----- --- ---- ------- -- ---- --- --<br>------- ------,180557.07999999868,180556.2950000167,179797.23,179797.39000002155,179813.912,180564.498,,13,government
screen,html.Screen,1_2_1_1_14,2021-03-14T00:31:44.001Z,,,,,,,,,,,,,,,,54,,,,,,,,,,,,,,887.7070000086969,response,,,,100,,,,,,Space,keypress(Space),,,,,,,,-- --- ---- --- ------ ----- ------- ---- -- --- ------- --<br>------- ---------- bonds. -- ----- -- ----- -- ---- ------<br>--- ----- --- --- ------ -------- ----- --- ------ ----- --<br>----- ----- ---------- --- --- ------ ------ ---- -- ------<br>------- --- ------ ----- --- ---- ------- -- ---- --- --<br>------- ------,181452.96500000404,181452.2050000087,180547.844,180557.30000001495,180564.498,181465.258,,14,bonds.
screen,html.Screen,1_2_1_1_15,2021-03-14T00:31:44.897Z,,,,,,,,,,,,,,,,54,,,,,,,,,,,,,,883.0120000167808,response,,,,100,,,,,,Space,keypress(Space),,,,,,,,-- --- ---- --- ------ ----- ------- ---- -- --- ------- --<br>------- ---------- ------ In ----- -- ----- -- ---- ------<br>--- ----- --- --- ------ -------- ----- --- ------ ----- --<br>----- ----- ---------- --- --- ------ ------ ---- -- ------<br>------- --- ------ ----- --- ---- ------- -- ---- --- --<br>------- ------,182349.04500000994,182348.27000001678,181448.578,181453.1850000203,181465.258,182366.034,,15,In
screen,html.Screen,1_2_1_1_16,2021-03-14T00:31:45.594Z,,,,,,,,,,,,,,,,54,,,,,,,,,,,,,,679.135999997583,response,,,,100,,,,,,Space,keypress(Space),,,,,,,,"-- --- ---- --- ------ ----- ------- ---- -- --- ------- --<br>------- ---------- ------ -- 1727, -- ----- -- ---- ------<br>--- ----- --- --- ------ -------- ----- --- ------ ----- --<br>----- ----- ---------- --- --- ------ ------ ---- -- ------<br>------- --- ------ ----- --- ---- ------- -- ---- --- --<br>------- ------",183045.99000001326,183045.1699999976,182349.3,182349.26000001724,182366.034,183049.891,,16,"1727,"
screen,html.Screen,1_2_1_1_17,2021-03-14T00:31:46.465Z,,,,,,,,,,,,,,,,54,,,,,,,,,,,,,,867.2590000229538,response,,,,100,,,,,,Space,keypress(Space),,,,,,,,-- --- ---- --- ------ ----- ------- ---- -- --- ------- --<br>------- ---------- ------ -- ----- in ----- -- ---- ------<br>--- ----- --- --- ------ -------- ----- --- ------ ----- --<br>----- ----- ---------- --- --- ------ ------ ---- -- ------<br>------- --- ------ ----- --- ---- ------- -- ---- --- --<br>------- ------,183917.82500001136,183917.15000002296,183033.201,183046.22000001837,183049.891,183933.986,,17,in
screen,html.Screen,1_2_1_1_18,2021-03-14T00:31:47.137Z,,,,,,,,,,,,,,,,54,,,,,,,,,,,,,,654.3090000232041,response,,,,100,,,,,,Space,keypress(Space),,,,,,,,-- --- ---- --- ------ ----- ------- ---- -- --- ------- --<br>------- ---------- ------ -- ----- -- order -- ---- ------<br>--- ----- --- --- ------ -------- ----- --- ------ ----- --<br>----- ----- ---------- --- --- ------ ------ ---- -- ------<br>------- --- ------ ----- --- ---- ------- -- ---- --- --<br>------- ------,184589.02500002296,184588.2950000232,183917.241,183918.04499999853,183933.986,184601.134,,18,order
screen,html.Screen,1_2_1_1_19,2021-03-14T00:31:47.721Z,,,,,,,,,,,,,,,,54,,,,,,,,,,,,,,571.1610000257788,response,,,,100,,,,,,Space,keypress(Space),,,,,,,,-- --- ---- --- ------ ----- ------- ---- -- --- ------- --<br>------- ---------- ------ -- ----- -- ----- to ---- ------<br>--- ----- --- --- ------ -------- ----- --- ------ ----- --<br>----- ----- ---------- --- --- ------ ------ ---- -- ------<br>------- --- ------ ----- --- ---- ------- -- ---- --- --<br>------- ------,185173.0099999986,185172.29500002577,184584.415,184589.25499999896,184601.134,185184.943,,19,to
screen,html.Screen,1_2_1_1_20,2021-03-14T00:31:48.313Z,,,,,,,,,,,,,,,,54,,,,,,,,,,,,,,579.3120000164199,response,,,,100,,,,,,Space,keypress(Space),,,,,,,,-- --- ---- --- ------ ----- ------- ---- -- --- ------- --<br>------- ---------- ------ -- ----- -- ----- -- save ------<br>--- ----- --- --- ------ -------- ----- --- ------ ----- --<br>----- ----- ---------- --- --- ------ ------ ---- -- ------<br>------- --- ------ ----- --- ---- ------- -- ---- --- --<br>------- ------,185764.9800000072,185764.25500001642,185168.26,185173.23000001488,185184.943,185785.481,,20,save
screen,html.Screen,1_2_1_1_21,2021-03-14T00:31:48.993Z,,,,,,,,,,,,,,,,54,,,,,,,,,,,,,,659.554000011558,response,,,,100,,,,,,Space,keypress(Space),,,,,,,,"-- --- ---- --- ------ ----- ------- ---- -- --- ------- --<br>------- ---------- ------ -- ----- -- ----- -- ---- money,<br>--- ----- --- --- ------ -------- ----- --- ------ ----- --<br>----- ----- ---------- --- --- ------ ------ ---- -- ------<br>------- --- ------ ----- --- ---- ------- -- ---- --- --<br>------- ------",186445.72499999776,186445.03500001156,185752.03,185765.2100000123,185785.481,186452.565,,21,"money,"
screen,html.Screen,1_2_1_1_22,2021-03-14T00:31:49.641Z,,,,,,,,,,,,,,,,54,,,,,,,,,,,,,,639.6900000250316,response,,,,100,,,,,,Space,keypress(Space),,,,,,,,-- --- ---- --- ------ ----- ------- ---- -- --- ------- --<br>------- ---------- ------ -- ----- -- ----- -- ---- ------<br>the ----- --- --- ------ -------- ----- --- ------ ----- --<br>----- ----- ---------- --- --- ------ ------ ---- -- ------<br>------- --- ------ ----- --- ---- ------- -- ---- --- --<br>------- ------,187093.00500000245,187092.25500002503,186435.959,186445.9650000208,186452.565,187103.171,,22,the
screen,html.Screen,1_2_1_1_23,2021-03-14T00:31:50.321Z,,,,,,,,,,,,,,,,54,,,,,,,,,,,,,,669.1539999980887,response,,,,100,,,,,,Space,keypress(Space),,,,,,,,-- --- ---- --- ------ ----- ------- ---- -- --- ------- --<br>------- ---------- ------ -- ----- -- ----- -- ---- ------<br>--- state --- --- ------ -------- ----- --- ------ ----- --<br>----- ----- ---------- --- --- ------ ------ ---- -- ------<br>------- --- ------ ----- --- ---- ------- -- ---- --- --<br>------- ------,187773.03500002017,187772.3249999981,187086.492,187093.22999999858,187103.171,187787.043,,23,state
screen,html.Screen,1_2_1_1_24,2021-03-14T00:31:50.945Z,,,,,,,,,,,,,,,,54,,,,,,,,,,,,,,609.2220000175876,response,,,,100,,,,,,Space,keypress(Space),,,,,,,,-- --- ---- --- ------ ----- ------- ---- -- --- ------- --<br>------- ---------- ------ -- ----- -- ----- -- ---- ------<br>--- ----- cut --- ------ -------- ----- --- ------ ----- --<br>----- ----- ---------- --- --- ------ ------ ---- -- ------<br>------- --- ------ ----- --- ---- ------- -- ---- --- --<br>------- ------,188397.04999999958,188396.2650000176,187770.325,187773.25500000734,187787.043,188404.184,,24,cut
screen,html.Screen,1_2_1_1_25,2021-03-14T00:31:51.673Z,,,,,,,,,,,,,,,,54,,,,,,,,,,,,,,720.1110000159824,response,,,,100,,,,,,Space,keypress(Space),,,,,,,,-- --- ---- --- ------ ----- ------- ---- -- --- ------- --<br>------- ---------- ------ -- ----- -- ----- -- ---- ------<br>--- ----- --- the ------ -------- ----- --- ------ ----- --<br>----- ----- ---------- --- --- ------ ------ ---- -- ------<br>------- --- ------ ----- --- ---- ------- -- ---- --- --<br>------- ------,189125.1100000227,189124.295000016,188387.554,188397.27500002482,188404.184,189138.156,,25,the
screen,html.Screen,1_2_1_1_26,2021-03-14T00:31:52.185Z,,,,,,,,,,,,,,,,54,,,,,,,,,,,,,,498.0890000015206,response,,,,100,,,,,,Space,keypress(Space),,,,,,,,-- --- ---- --- ------ ----- ------- ---- -- --- ------- --<br>------- ---------- ------ -- ----- -- ----- -- ---- ------<br>--- ----- --- --- bonds' -------- ----- --- ------ ----- --<br>----- ----- ---------- --- --- ------ ------ ---- -- ------<br>------- --- ------ ----- --- ---- ------- -- ---- --- --<br>------- ------,189636.99500000803,189636.2450000015,189121.472,189125.34500000766,189138.156,189666.963,,26,bonds'
screen,html.Screen,1_2_1_1_27,2021-03-14T00:31:52.801Z,,,,,,,,,,,,,,,,54,,,,,,,,,,,,,,585.3770000063814,response,,,,100,,,,,,Space,keypress(Space),,,,,,,,-- --- ---- --- ------ ----- ------- ---- -- --- ------- --<br>------- ---------- ------ -- ----- -- ----- -- ---- ------<br>--- ----- --- --- ------ interest ----- --- ------ ----- --<br>----- ----- ---------- --- --- ------ ------ ---- -- ------<br>------- --- ------ ----- --- ---- ------- -- ---- --- --<br>------- ------,190253.10000000172,190252.34000000637,189621.885,189637.21000001533,189666.963,190255.712,,27,interest
screen,html.Screen,1_2_1_1_28,2021-03-14T00:31:53.417Z,,,,,,,,,,,,,,,,54,,,,,,,,,,,,,,612.5430000085034,response,,,,100,,,,,,Space,keypress(Space),,,,,,,,-- --- ---- --- ------ ----- ------- ---- -- --- ------- --<br>------- ---------- ------ -- ----- -- ----- -- ---- ------<br>--- ----- --- --- ------ -------- rate. --- ------ ----- --<br>----- ----- ---------- --- --- ------ ------ ---- -- ------<br>------- --- ------ ----- --- ---- ------- -- ---- --- --<br>------- ------,190869.00000000605,190868.2550000085,190239.049,190253.33000000683,190255.712,190872.917,,28,rate.
screen,html.Screen,1_2_1_1_29,2021-03-14T00:31:54.593Z,,,,,,,,,,,,,,,,54,,,,,,,,,,,,,,1171.3480000041018,response,,,,100,,,,,,Space,keypress(Space),,,,,,,,-- --- ---- --- ------ ----- ------- ---- -- --- ------- --<br>------- ---------- ------ -- ----- -- ----- -- ---- ------<br>--- ----- --- --- ------ -------- ----- The ------ ----- --<br>----- ----- ---------- --- --- ------ ------ ---- -- ------<br>------- --- ------ ----- --- ---- ------- -- ---- --- --<br>------- ------,192045.03500001738,192044.2650000041,190856.222,190869.22000002232,190872.917,192057.16,,29,The
screen,html.Screen,1_2_1_1_30,2021-03-14T00:31:55.136Z,,,,,,,,,,,,,,,,54,,,,,,,,,,,,,,531.1400000030699,response,,,,100,,,,,,Space,keypress(Space),,,,,,,,-- --- ---- --- ------ ----- ------- ---- -- --- ------- --<br>------- ---------- ------ -- ----- -- ----- -- ---- ------<br>--- ----- --- --- ------ -------- ----- --- market ----- --<br>----- ----- ---------- --- --- ------ ------ ---- -- ------<br>------- --- ------ ----- --- ---- ------- -- ---- --- --<br>------- ------,192588.90000000247,192588.30000000307,192040.51,192045.25000002468,192057.16,192590.98,,30,market
screen,html.Screen,1_2_1_1_31,2021-03-14T00:31:55.771Z,,,,,,,,,,,,,,,,54,,,,,,,,,,,,,,630.1750000065367,response,,,,100,,,,,,Space,keypress(Space),,,,,,,,-- --- ---- --- ------ ----- ------- ---- -- --- ------- --<br>------- ---------- ------ -- ----- -- ----- -- ---- ------<br>--- ----- --- --- ------ -------- ----- --- ------ value --<br>----- ----- ---------- --- --- ------ ------ ---- -- ------<br>------- --- ------ ----- --- ---- ------- -- ---- --- --<br>------- ------,193223.32499999902,193221.15500000655,192574.28,192589.11500000977,192590.98,193254.878,,31,value
screen,html.Screen,1_2_1_1_32,2021-03-14T00:31:56.417Z,,,,,,,,,,,,,,,,54,,,,,,,,,,,,,,613.4220000019122,response,,,,100,,,,,,Space,keypress(Space),,,,,,,,-- --- ---- --- ------ ----- ------- ---- -- --- ------- --<br>------- ---------- ------ -- ----- -- ----- -- ---- ------<br>--- ----- --- --- ------ -------- ----- --- ------ ----- of<br>----- ----- ---------- --- --- ------ ------ ---- -- ------<br>------- --- ------ ----- --- ---- ------- -- ---- --- --<br>------- ------,193869.10500001977,193868.3000000019,193208.132,193223.5600000131,193254.878,193875.307,,32,of
screen,html.Screen,1_2_1_1_33,2021-03-14T00:31:57.009Z,,,,,,,,,,,,,,,,54,,,,,,,,,,,,,,585.0080000039015,response,,,,100,,,,,,Space,keypress(Space),,,,,,,,-- --- ---- --- ------ ----- ------- ---- -- --- ------- --<br>------- ---------- ------ -- ----- -- ----- -- ---- ------<br>--- ----- --- --- ------ -------- ----- --- ------ ----- --<br>these ----- ---------- --- --- ------ ------ ---- -- ------<br>------- --- ------ ----- --- ---- ------- -- ---- --- --<br>------- ------,194461.0700000194,194460.3150000039,193858.597,193869.31999999797,193875.307,194475.871,,33,these
screen,html.Screen,1_2_1_1_34,2021-03-14T00:31:57.625Z,,,,,,,,,,,,,,,,54,,,,,,,,,,,,,,600.4290000151668,response,,,,100,,,,,,Space,keypress(Space),,,,,,,,-- --- ---- --- ------ ----- ------- ---- -- --- ------- --<br>------- ---------- ------ -- ----- -- ----- -- ---- ------<br>--- ----- --- --- ------ -------- ----- --- ------ ----- --<br>----- bonds ---------- --- --- ------ ------ ---- -- ------<br>------- --- ------ ----- --- ---- ------- -- ---- --- --<br>------- ------,195077.02500000596,195076.30000001518,194459.148,194461.28000001772,194475.871,195093.051,,34,bonds
screen,html.Screen,1_2_1_1_35,2021-03-14T00:31:58.298Z,,,,,,,,,,,,,,,,54,,,,,,,,,,,,,,656.38900001414,response,,,,100,,,,,,Space,keypress(Space),,,,,,,,"-- --- ---- --- ------ ----- ------- ---- -- --- ------- --<br>------- ---------- ------ -- ----- -- ----- -- ---- ------<br>--- ----- --- --- ------ -------- ----- --- ------ ----- --<br>----- ----- plummeted, --- --- ------ ------ ---- -- ------<br>------- --- ------ ----- --- ---- ------- -- ---- --- --<br>------- ------",195750.12000001152,195749.44000001415,195076.318,195077.2350000043,195093.051,195760.198,,35,"plummeted,"
screen,html.Screen,1_2_1_1_36,2021-03-14T00:31:58.937Z,,,,,,,,,,,,,,,,54,,,,,,,,,,,,,,628.0870000227296,response,,,,100,,,,,,Space,keypress(Space),,,,,,,,-- --- ---- --- ------ ----- ------- ---- -- --- ------- --<br>------- ---------- ------ -- ----- -- ----- -- ---- ------<br>--- ----- --- --- ------ -------- ----- --- ------ ----- --<br>----- ----- ---------- and --- ------ ------ ---- -- ------<br>------- --- ------ ----- --- ---- ------- -- ---- --- --<br>------- ------,196388.96000001114,196388.28500002273,195743.522,195750.3399999987,195760.198,196394.023,,36,and
screen,html.Screen,1_2_1_1_37,2021-03-14T00:31:59.561Z,,,,,,,,,,,,,,,,54,,,,,,,,,,,,,,618.6570000143838,response,,,,100,,,,,,Space,keypress(Space),,,,,,,,-- --- ---- --- ------ ----- ------- ---- -- --- ------- --<br>------- ---------- ------ -- ----- -- ----- -- ---- ------<br>--- ----- --- --- ------ -------- ----- --- ------ ----- --<br>----- ----- ---------- --- the ------ ------ ---- -- ------<br>------- --- ------ ----- --- ---- ------- -- ---- --- --<br>------- ------,197013.38499999838,197012.68000001437,196377.372,196389.17000000947,196394.023,197027.908,,37,the
screen,html.Screen,1_2_1_1_38,2021-03-14T00:32:00.281Z,,,,,,,,,,,,,,,,54,,,,,,,,,,,,,,704.3170000143,response,,,,100,,,,,,Space,keypress(Space),,,,,,,,-- --- ---- --- ------ ----- ------- ---- -- --- ------- --<br>------- ---------- ------ -- ----- -- ----- -- ---- ------<br>--- ----- --- --- ------ -------- ----- --- ------ ----- --<br>----- ----- ---------- --- --- market ------ ---- -- ------<br>------- --- ------ ----- --- ---- ------- -- ---- --- --<br>------- ------,197732.98000000068,197732.2250000143,197011.175,197013.59500002582,197027.908,197745.146,,38,market
screen,html.Screen,1_2_1_1_39,2021-03-14T00:32:00.825Z,,,,,,,,,,,,,,,,54,,,,,,,,,,,,,,531.1740000044811,response,,,,100,,,,,,Space,keypress(Space),,,,,,,,-- --- ---- --- ------ ----- ------- ---- -- --- ------- --<br>------- ---------- ------ -- ----- -- ----- -- ---- ------<br>--- ----- --- --- ------ -------- ----- --- ------ ----- --<br>----- ----- ---------- --- --- ------ became ---- -- ------<br>------- --- ------ ----- --- ---- ------- -- ---- --- --<br>------- ------,198277.09499999764,198276.3200000045,197728.479,197733.19500000798,197745.146,198297.575,,39,became
screen,html.Screen,1_2_1_1_40,2021-03-14T00:32:01.329Z,,,,,,,,,,,,,,,,54,,,,,,,,,,,,,,482.6450000150944,response,,,,100,,,,,,Space,keypress(Space),,,,,,,,-- --- ---- --- ------ ----- ------- ---- -- --- ------- --<br>------- ---------- ------ -- ----- -- ----- -- ---- ------<br>--- ----- --- --- ------ -------- ----- --- ------ ----- --<br>----- ----- ---------- --- --- ------ ------ wary -- ------<br>------- --- ------ ----- --- ---- ------- -- ---- --- --<br>------- ------,198780.9899999993,198780.2200000151,198262.246,198277.30500002508,198297.575,198796.052,,40,wary
screen,html.Screen,1_2_1_1_41,2021-03-14T00:32:01.913Z,,,,,,,,,,,,,,,,54,,,,,,,,,,,,,,568.2580000044836,response,,,,100,,,,,,Space,keypress(Space),,,,,,,,-- --- ---- --- ------ ----- ------- ---- -- --- ------- --<br>------- ---------- ------ -- ----- -- ----- -- ---- ------<br>--- ----- --- --- ------ -------- ----- --- ------ ----- --<br>----- ----- ---------- --- --- ------ ------ ---- of ------<br>------- --- ------ ----- --- ---- ------- -- ---- --- --<br>------- ------,199365.1200000022,199364.31000000448,198779.321,198781.2050000066,198796.052,199379.825,,41,of
screen,html.Screen,1_2_1_1_42,2021-03-14T00:32:02.577Z,,,,,,,,,,,,,,,,54,,,,,,,,,,,,,,648.5250000077649,response,,,,100,,,,,,Space,keypress(Space),,,,,,,,-- --- ---- --- ------ ----- ------- ---- -- --- ------- --<br>------- ---------- ------ -- ----- -- ----- -- ---- ------<br>--- ----- --- --- ------ -------- ----- --- ------ ----- --<br>----- ----- ---------- --- --- ------ ------ ---- -- French<br>------- --- ------ ----- --- ---- ------- -- ---- --- --<br>------- ------,200029.09500000533,200028.35000000778,199363.135,199365.34499999834,199379.825,200047.045,,42,French
screen,html.Screen,1_2_1_1_43,2021-03-14T00:32:03.177Z,,,,,,,,,,,,,,,,54,,,,,,,,,,,,,,581.2149999976682,response,,,,100,,,,,,Space,keypress(Space),,,,,,,,-- --- ---- --- ------ ----- ------- ---- -- --- ------- --<br>------- ---------- ------ -- ----- -- ----- -- ---- ------<br>--- ----- --- --- ------ -------- ----- --- ------ ----- --<br>----- ----- ---------- --- --- ------ ------ ---- -- ------<br>credit. --- ------ ----- --- ---- ------- -- ---- --- --<br>------- ------,200629.0399999998,200628.25999999768,200013.658,200029.31000001263,200047.045,200630.839,,43,credit.
screen,html.Screen,1_2_1_1_44,2021-03-14T00:32:03.841Z,,,,,,,,,,,,,,,,54,,,,,,,,,,,,,,661.4759999987727,response,,,,100,,,,,,Space,keypress(Space),,,,,,,,-- --- ---- --- ------ ----- ------- ---- -- --- ------- --<br>------- ---------- ------ -- ----- -- ----- -- ---- ------<br>--- ----- --- --- ------ -------- ----- --- ------ ----- --<br>----- ----- ---------- --- --- ------ ------ ---- -- ------<br>------- The ------ ----- --- ---- ------- -- ---- --- --<br>------- ------,201293.0200000119,201292.31499999878,200614.15,200629.24999999814,200630.839,201298.014,,44,The
screen,html.Screen,1_2_1_1_45,2021-03-14T00:32:04.457Z,,,,,,,,,,,,,,,,54,,,,,,,,,,,,,,610.201000003115,response,,,,100,,,,,,Space,keypress(Space),,,,,,,,-- --- ---- --- ------ ----- ------- ---- -- --- ------- --<br>------- ---------- ------ -- ----- -- ----- -- ---- ------<br>--- ----- --- --- ------ -------- ----- --- ------ ----- --<br>----- ----- ---------- --- --- ------ ------ ---- -- ------<br>------- --- French ----- --- ---- ------- -- ---- --- --<br>------- ------,201908.97499999846,201908.2150000031,201281.356,201293.22500000126,201298.014,201915.13,,45,French
screen,html.Screen,1_2_1_1_46,2021-03-14T00:32:05.073Z,,,,,,,,,,,,,,,,54,,,,,,,,,,,,,,610.0300000192365,response,,,,100,,,,,,Space,keypress(Space),,,,,,,,-- --- ---- --- ------ ----- ------- ---- -- --- ------- --<br>------- ---------- ------ -- ----- -- ----- -- ---- ------<br>--- ----- --- --- ------ -------- ----- --- ------ ----- --<br>----- ----- ---------- --- --- ------ ------ ---- -- ------<br>------- --- ------ state --- ---- ------- -- ---- --- --<br>------- ------,202525.91500000563,202525.16000001924,201898.533,201909.19000000576,201915.13,202532.317,,46,state
screen,html.Screen,1_2_1_1_47,2021-03-14T00:32:05.633Z,,,,,,,,,,,,,,,,54,,,,,,,,,,,,,,552.7580000099551,response,,,,100,,,,,,Space,keypress(Space),,,,,,,,-- --- ---- --- ------ ----- ------- ---- -- --- ------- --<br>------- ---------- ------ -- ----- -- ----- -- ---- ------<br>--- ----- --- --- ------ -------- ----- --- ------ ----- --<br>----- ----- ---------- --- --- ------ ------ ---- -- ------<br>------- --- ------ ----- was ---- ------- -- ---- --- --<br>------- ------,203085.79500002088,203085.07500000997,202515.7,202526.1350000219,202532.317,203099.498,,47,was
screen,html.Screen,1_2_1_1_48,2021-03-14T00:32:06.113Z,,,,,,,,,,,,,,,,54,,,,,,,,,,,,,,465.63700001165853,response,,,,100,,,,,,Space,keypress(Space),,,,,,,,-- --- ---- --- ------ ----- ------- ---- -- --- ------- --<br>------- ---------- ------ -- ----- -- ----- -- ---- ------<br>--- ----- --- --- ------ -------- ----- --- ------ ----- --<br>----- ----- ---------- --- --- ------ ------ ---- -- ------<br>------- --- ------ ----- --- left ------- -- ---- --- --<br>------- ------,203565.92000002274,203565.13500001165,203082.822,203086.0050000192,203099.498,203583.282,,48,left
screen,html.Screen,1_2_1_1_49,2021-03-14T00:32:06.705Z,,,,,,,,,,,,,,,,54,,,,,,,,,,,,,,573.023000011337,response,,,,100,,,,,,Space,keypress(Space),,,,,,,,-- --- ---- --- ------ ----- ------- ---- -- --- ------- --<br>------- ---------- ------ -- ----- -- ----- -- ---- ------<br>--- ----- --- --- ------ -------- ----- --- ------ ----- --<br>----- ----- ---------- --- --- ------ ------ ---- -- ------<br>------- --- ------ ----- --- ---- without -- ---- --- --<br>------- ------,204157.09000002244,204156.30500001134,203566.547,203566.14500001888,203583.282,204167.031,,49,without
screen,html.Screen,1_2_1_1_50,2021-03-14T00:32:07.225Z,,,,,,,,,,,,,,,,54,,,,,,,,,,,,,,509.2590000030759,response,,,,100,,,,,,Space,keypress(Space),,,,,,,,-- --- ---- --- ------ ----- ------- ---- -- --- ------- --<br>------- ---------- ------ -- ----- -- ----- -- ---- ------<br>--- ----- --- --- ------ -------- ----- --- ------ ----- --<br>----- ----- ---------- --- --- ------ ------ ---- -- ------<br>------- --- ------ ----- --- ---- ------- an ---- --- --<br>------- ------,204677.06000001635,204676.29000000306,204150.358,204157.3100000096,204167.031,204684.091,,50,an
screen,html.Screen,1_2_1_1_51,2021-03-14T00:32:07.745Z,,,,,,,,,,,,,,,,54,,,,,,,,,,,,,,512.1690000261005,response,,,,100,,,,,,Space,keypress(Space),,,,,,,,-- --- ---- --- ------ ----- ------- ---- -- --- ------- --<br>------- ---------- ------ -- ----- -- ----- -- ---- ------<br>--- ----- --- --- ------ -------- ----- --- ------ ----- --<br>----- ----- ---------- --- --- ------ ------ ---- -- ------<br>------- --- ------ ----- --- ---- ------- -- easy --- --<br>------- ------,205196.99000002583,205196.2600000261,204667.441,204677.27500002366,204684.091,205201.227,,51,easy
screen,html.Screen,1_2_1_1_52,2021-03-14T00:32:08.337Z,,,,,,,,,,,,,,,,54,,,,,,,,,,,,,,587.0280000212952,response,,,,100,,,,,,Space,keypress(Space),,,,,,,,-- --- ---- --- ------ ----- ------- ---- -- --- ------- --<br>------- ---------- ------ -- ----- -- ----- -- ---- ------<br>--- ----- --- --- ------ -------- ----- --- ------ ----- --<br>----- ----- ---------- --- --- ------ ------ ---- -- ------<br>------- --- ------ ----- --- ---- ------- -- ---- way --<br>------- ------,205788.9650000143,205788.2550000213,205184.531,205197.20500000403,205201.227,205801.689,,52,way
screen,html.Screen,1_2_1_1_53,2021-03-14T00:32:08.905Z,,,,,,,,,,,,,,,,54,,,,,,,,,,,,,,554.551000022795,response,,,,100,,,,,,Space,keypress(Space),,,,,,,,-- --- ---- --- ------ ----- ------- ---- -- --- ------- --<br>------- ---------- ------ -- ----- -- ----- -- ---- ------<br>--- ----- --- --- ------ -------- ----- --- ------ ----- --<br>----- ----- ---------- --- --- ------ ------ ---- -- ------<br>------- --- ------ ----- --- ---- ------- -- ---- --- of<br>------- ------,206357.02000002493,206356.2400000228,205785.017,205789.17500001262,205801.689,206368.816,,53,of
screen,html.Screen,1_2_1_1_54,2021-03-14T00:32:09.441Z,,,,,,,,,,,,,,,,54,,,,,,,,,,,,,,523.4890000157757,response,,,,100,,,,,,Space,keypress(Space),,,,,,,,-- --- ---- --- ------ ----- ------- ---- -- --- ------- --<br>------- ---------- ------ -- ----- -- ----- -- ---- ------<br>--- ----- --- --- ------ -------- ----- --- ------ ----- --<br>----- ----- ---------- --- --- ------ ------ ---- -- ------<br>------- --- ------ ----- --- ---- ------- -- ---- --- --<br>raising ------,206893.00999999978,206892.30500001577,206352.144,206357.2400000121,206368.816,206902.545,,54,raising
screen,html.Screen,1_2_1_1_55,2021-03-14T00:32:10.249Z,,,,,,,,,,,,,,,,54,,,,,,,,,,,,,,797.739999998972,response,,,,100,,,,,,Space,keypress(Space),,,,,,,,-- --- ---- --- ------ ----- ------- ---- -- --- ------- --<br>------- ---------- ------ -- ----- -- ----- -- ---- ------<br>--- ----- --- --- ------ -------- ----- --- ------ ----- --<br>----- ----- ---------- --- --- ------ ------ ---- -- ------<br>------- --- ------ ----- --- ---- ------- -- ---- --- --<br>------- money.,207701.00000000093,207700.28499999898,206885.912,206893.23000001605,206902.545,207726.09,,55,money.
Item 100,flow.Loop,1_2_1_1,2021-03-14T00:32:10.249Z,,,,,,,,,,,,,,,,,,,,,,,,,,,,,,38545.054999998974,completion,,,,,A,,,,,,,,,,silence,,,,,207701.40000001993,207700.28499999898,169138.58,169139.6900000109,169155.23,207726.09,,,
Question 1,html.Screen,1_2_1_2,2021-03-14T00:32:20.692Z,,,,,,,,,,,,,,,,,,,,,,,,,,,true,TRUE,,10417.989999998215,response,,,,100,A,,,,,TRUE,click #choice-1,,,,silence,,,,,218144.82500002487,218144.0799999982,207686.556,207701.57000000472,207726.09,218169.805,,,
Question 2,html.Screen,1_2_1_3,2021-03-14T00:32:31.716Z,,,,,,,,,,,,,,,,,,,,,,,,,,,true,FALSE,,10998.150000011723,response,,,,100,A,,,,,FALSE,click #choice-2,,,,silence,,,,,229168.6350000091,229167.95500001172,218128.391,218144.95500002522,218169.805,229170.678,,,
Item 100,flow.Sequence,1_2_1,2021-03-14T00:32:31.716Z,,,,,,,,,,,,,,,,,,,,,,,,,,,,,,67018.51800001171,completion,,,,,,,,,,,,,,,,,,,,229168.8200000208,229167.95500001172,162132.937,162137.08000001498,162149.437,229170.678,,,
End of Practice,html.Page,1_2_2,2021-03-14T00:32:41.813Z,,,,,,,,,,,,,,,,,,,,,,,,,,,,,,10094.517000014486,form submission,,,,,,,,,,,,,,,,,,,,239265.55999999982,239265.1950000145,229154.003,229168.90000001877,229170.678,239278.759,,,
Practice,flow.Sequence,1_2,2021-03-14T00:32:41.813Z,,,,,,,,,,,,,,,,,,,,,,,,,,,,,,137981.7880000145,completion,,,,,,,,,,,,,,,,,,,,239265.74500001152,239265.1950000145,101266.756,101282.01500000432,101283.407,239278.759,,,
Trap_instruction,html.Page,1_3_0,2021-03-14T00:32:49.933Z,,,,,,,,,,,,,,,,,,,,,,,,,,,,,,8106.816000022081,form submission,,,,,,,,,,,,,,,,,,,,247385.89000000502,247385.57500002207,239262.229,239265.8550000051,239278.759,247402.159,,,
trap_trial,html.Screen,1_3_1,2021-03-14T00:33:00.780Z,,,,,,,,,,,,,,,,,,,,,,,,,,,true,1,,10829.821000011376,response,,,,,,,,,,1,click #choice-1,,,,,,,,,258232.7300000179,258231.9800000114,247385.472,247386.00500000757,247402.159,258244.133,,,
end of trap trial,html.Page,1_3_2,2021-03-14T00:33:02.701Z,,,,,,,,,,,,,,,,,,,,,,,,,,,,,,1909.152000007598,form submission,,,,,,,,,,,,,,,,,,,,260153.61000000848,260153.2850000076,258227.637,258232.89000001387,258244.133,260162.529,,,
Trap 1,flow.Sequence,1_3,2021-03-14T00:33:02.701Z,,,,,,,,,,,,,,,,,,,,,,,,,,,,,,20874.52600000761,completion,,,,,,,,,,,,,,,,,,,,260153.79500002018,260153.2850000076,239262.229,239265.81500002067,239278.759,260162.529,,,
Holding screen,html.Screen,1_4_0_0,2021-03-14T00:33:09.700Z,,,,,,,,,,,,,,,,,,,,,,,,,,,,,,7005.6750000000175,timeout,,,,,,,,,,,,,,,,,,,,267152.1750000247,267151.554,260145.811,260153.93500000937,260162.529,267168.204,,,
screen,html.Screen,1_4_0_1_0,2021-03-14T00:33:12.353Z,,,,,,,,,,,,,,,,48,,,,,,,,,,,,,,2636.765999997384,response,,,,10,A,,,,,Space,keypress(Space),,,,silence,,,,As -- --- ------ ------- --------- ----------- --------<br>--------- -------- --- ------- -- ------- ---- -- ------<br>-- --- -------- -------- ---------- ---- ---- ---- ------<br>-- --------- -- ---- -- --- -- --- ------- -- - -----<br>---------- -- -- -- ---- ----- -- ------ -- --- ------<br>-------,269805.74500001967,269804.9699999974,267151.554,267152.43500002543,267168.204,269820.339,,0,As
screen,html.Screen,1_4_0_1_1,2021-03-14T00:33:12.872Z,,,,,,,,,,,,,,,,48,,,,,,,,,,,,,,504.026000007696,response,,,,10,A,,,,,Space,keypress(Space),,,,silence,,,,-- in --- ------ ------- --------- ----------- --------<br>--------- -------- --- ------- -- ------- ---- -- ------<br>-- --- -------- -------- ---------- ---- ---- ---- ------<br>-- --------- -- ---- -- --- -- --- ------- -- - -----<br>---------- -- -- -- ---- ----- -- ------ -- --- ------<br>-------,270325.12000002316,270324.3650000077,269803.64,269805.9400000202,269820.339,270337.476,,1,in
screen,html.Screen,1_4_0_1_2,2021-03-14T00:33:13.489Z,,,,,,,,,,,,,,,,48,,,,,,,,,,,,,,602.9340000101365,response,,,,10,A,,,,,Space,keypress(Space),,,,silence,,,,-- -- the ------ ------- --------- ----------- --------<br>--------- -------- --- ------- -- ------- ---- -- ------<br>-- --- -------- -------- ---------- ---- ---- ---- ------<br>-- --------- -- ---- -- --- -- --- ------- -- - -----<br>---------- -- -- -- ---- ----- -- ------ -- --- ------<br>-------,270941.2000000011,270940.41000001016,270320.809,270325.32000000356,270337.476,270954.644,,2,the
screen,html.Screen,1_4_0_1_3,2021-03-14T00:33:13.929Z,,,,,,,,,,,,,,,,48,,,,,,,,,,,,,,425.77100002148654,response,,,,10,A,,,,,Space,keypress(Space),,,,silence,,,,-- -- --- United ------- --------- ----------- --------<br>--------- -------- --- ------- -- ------- ---- -- ------<br>-- --- -------- -------- ---------- ---- ---- ---- ------<br>-- --------- -- ---- -- --- -- --- ------- -- - -----<br>---------- -- -- -- ---- ----- -- ------ -- --- ------<br>-------,271381.17000000784,271380.41500002146,270937.962,270941.4050000196,270954.644,271388.178,,3,United
screen,html.Screen,1_4_0_1_4,2021-03-14T00:33:14.417Z,,,,,,,,,,,,,,,,48,,,,,,,,,,,,,,480.30200000462355,response,,,,10,A,,,,,Space,keypress(Space),,,,silence,,,,"-- -- --- ------ States, --------- ----------- --------<br>--------- -------- --- ------- -- ------- ---- -- ------<br>-- --- -------- -------- ---------- ---- ---- ---- ------<br>-- --------- -- ---- -- --- -- --- ------- -- - -----<br>---------- -- -- -- ---- ----- -- ------ -- --- ------<br>-------",271869.24,271868.48000000464,271371.599,271381.3749999972,271388.178,271872.072,,4,"States,"
screen,html.Screen,1_4_0_1_5,2021-03-14T00:33:15.056Z,,,,,,,,,,,,,,,,48,,,,,,,,,,,,,,636.3230000116746,response,,,,10,A,,,,,Space,keypress(Space),,,,silence,,,,-- -- --- ------ ------- Colombian ----------- --------<br>--------- -------- --- ------- -- ------- ---- -- ------<br>-- --- -------- -------- ---------- ---- ---- ---- ------<br>-- --------- -- ---- -- --- -- --- ------- -- - -----<br>---------- -- -- -- ---- ----- -- ------ -- --- ------<br>-------,272509.1150000226,272508.39500001166,271855.269,271869.4400000095,271872.072,272522.648,,5,Colombian
screen,html.Screen,1_4_0_1_6,2021-03-14T00:33:15.552Z,,,,,,,,,,,,,,,,48,,,,,,,,,,,,,,481.76200002321275,response,,,,10,A,,,,,Space,keypress(Space),,,,silence,,,,-- -- --- ------ ------- --------- legislation --------<br>--------- -------- --- ------- -- ------- ---- -- ------<br>-- --- -------- -------- ---------- ---- ---- ---- ------<br>-- --------- -- ---- -- --- -- --- ------- -- - -----<br>---------- -- -- -- ---- ----- -- ------ -- --- ------<br>-------,273005.14000002295,273004.4100000232,272505.903,272509.3100000231,272522.648,273022.999,,6,legislation
screen,html.Screen,1_4_0_1_7,2021-03-14T00:33:16.312Z,,,,,,,,,,,,,,,,48,,,,,,,,,,,,,,741.3510000121896,response,,,,10,A,,,,,Space,keypress(Space),,,,silence,,,,-- -- --- ------ ------- --------- ----------- requires<br>--------- -------- --- ------- -- ------- ---- -- ------<br>-- --- -------- -------- ---------- ---- ---- ---- ------<br>-- --------- -- ---- -- --- -- --- ------- -- - -----<br>---------- -- -- -- ---- ----- -- ------ -- --- ------<br>-------,273765.0850000209,273764.3500000122,272989.627,273005.3450000123,273022.999,273773.599,,7,requires
screen,html.Screen,1_4_0_1_8,2021-03-14T00:33:16.809Z,,,,,,,,,,,,,,,,48,,,,,,,,,,,,,,487.59599999914644,response,,,,10,A,,,,,Space,keypress(Space),,,,silence,,,,-- -- --- ------ ------- --------- ----------- --------<br>travelers -------- --- ------- -- ------- ---- -- ------<br>-- --- -------- -------- ---------- ---- ---- ---- ------<br>-- --------- -- ---- -- --- -- --- ------- -- - -----<br>---------- -- -- -- ---- ----- -- ------ -- --- ------<br>-------,274261.80500001647,274261.19499999913,273756.915,273765.28000002145,273773.599,274273.975,,8,travelers
screen,html.Screen,1_4_0_1_9,2021-03-14T00:33:17.312Z,,,,,,,,,,,,,,,,48,,,,,,,,,,,,,,490.34500001661945,response,,,,10,A,,,,,Space,keypress(Space),,,,silence,,,,-- -- --- ------ ------- --------- ----------- --------<br>--------- entering --- ------- -- ------- ---- -- ------<br>-- --- -------- -------- ---------- ---- ---- ---- ------<br>-- --------- -- ---- -- --- -- --- ------- -- - -----<br>---------- -- -- -- ---- ----- -- ------ -- --- ------<br>-------,274765.08000001195,274764.3200000166,274257.274,274262.01000000583,274273.975,274774.408,,9,entering
screen,html.Screen,1_4_0_1_10,2021-03-14T00:33:17.856Z,,,,,,,,,,,,,,,,48,,,,,,,,,,,,,,533.9219999998459,response,,,,10,A,,,,,Space,keypress(Space),,,,silence,,,,-- -- --- ------ ------- --------- ----------- --------<br>--------- -------- the ------- -- ------- ---- -- ------<br>-- --- -------- -------- ---------- ---- ---- ---- ------<br>-- --------- -- ---- -- --- -- --- ------- -- - -----<br>---------- -- -- -- ---- ----- -- ------ -- --- ------<br>-------,275309.1050000221,275308.32999999984,274757.694,274765.2700000035,274774.408,275324.919,,10,the
screen,html.Screen,1_4_0_1_11,2021-03-14T00:33:18.449Z,,,,,,,,,,,,,,,,48,,,,,,,,,,,,,,575.5160000177566,response,,,,10,A,,,,,Space,keypress(Space),,,,silence,,,,-- -- --- ------ ------- --------- ----------- --------<br>--------- -------- --- country -- ------- ---- -- ------<br>-- --- -------- -------- ---------- ---- ---- ---- ------<br>-- --------- -- ---- -- --- -- --- ------- -- - -----<br>---------- -- -- -- ---- ----- -- ------ -- --- ------<br>-------,275901.19000000414,275900.43500001775,275308.18,275309.31000001146,275324.919,275908.574,,11,country
screen,html.Screen,1_4_0_1_12,2021-03-14T00:33:18.936Z,,,,,,,,,,,,,,,,48,,,,,,,,,,,,,,479.7610000250861,response,,,,10,A,,,,,Space,keypress(Space),,,,silence,,,,-- -- --- ------ ------- --------- ----------- --------<br>--------- -------- --- ------- to ------- ---- -- ------<br>-- --- -------- -------- ---------- ---- ---- ---- ------<br>-- --------- -- ---- -- --- -- --- ------- -- - -----<br>---------- -- -- -- ---- ----- -- ------ -- --- ------<br>-------,276389.0900000115,276388.3350000251,275891.929,275901.3950000226,275908.574,276392.406,,12,to
screen,html.Screen,1_4_0_1_13,2021-03-14T00:33:19.386Z,,,,,,,,,,,,,,,,48,,,,,,,,,,,,,,445.349000015005,response,,,,10,A,,,,,Space,keypress(Space),,,,silence,,,,-- -- --- ------ ------- --------- ----------- --------<br>--------- -------- --- ------- -- declare ---- -- ------<br>-- --- -------- -------- ---------- ---- ---- ---- ------<br>-- --------- -- ---- -- --- -- --- ------- -- - -----<br>---------- -- -- -- ---- ----- -- ------ -- --- ------<br>-------,276838.465000008,276837.755000015,276375.718,276389.29500000086,276392.406,276842.779,,13,declare
screen,html.Screen,1_4_0_1_14,2021-03-14T00:33:19.832Z,,,,,,,,,,,,,,,,48,,,,,,,,,,,,,,441.52099999936763,response,,,,10,A,,,,,Space,keypress(Space),,,,silence,,,,-- -- --- ------ ------- --------- ----------- --------<br>--------- -------- --- ------- -- ------- cash -- ------<br>-- --- -------- -------- ---------- ---- ---- ---- ------<br>-- --------- -- ---- -- --- -- --- ------- -- - -----<br>---------- -- -- -- ---- ----- -- ------ -- --- ------<br>-------,277285.04000001703,277284.29999999935,276826.077,276838.6650000175,276842.779,277293.064,,14,cash
screen,html.Screen,1_4_0_1_15,2021-03-14T00:33:20.489Z,,,,,,,,,,,,,,,,48,,,,,,,,,,,,,,647.9160000139382,response,,,,10,A,,,,,Space,keypress(Space),,,,silence,,,,-- -- --- ------ ------- --------- ----------- --------<br>--------- -------- --- ------- -- ------- ---- in ------<br>-- --- -------- -------- ---------- ---- ---- ---- ------<br>-- --------- -- ---- -- --- -- --- ------- -- - -----<br>---------- -- -- -- ---- ----- -- ------ -- --- ------<br>-------,277941.6650000203,277940.98000001395,277276.445,277285.23500001756,277293.064,277943.688,,15,in
screen,html.Screen,1_4_0_1_16,2021-03-14T00:33:21.040Z,,,,,,,,,,,,,,,,48,,,,,,,,,,,,,,548.6519999970333,response,,,,10,A,,,,,Space,keypress(Space),,,,silence,,,,-- -- --- ------ ------- --------- ----------- --------<br>--------- -------- --- ------- -- ------- ---- -- excess<br>-- --- -------- -------- ---------- ---- ---- ---- ------<br>-- --------- -- ---- -- --- -- --- ------- -- - -----<br>---------- -- -- -- ---- ----- -- ------ -- --- ------<br>-------,278493.0400000012,278492.33999999706,277926.969,277941.8650000007,277943.688,278510.792,,16,excess
screen,html.Screen,1_4_0_1_17,2021-03-14T00:33:21.576Z,,,,,,,,,,,,,,,,48,,,,,,,,,,,,,,517.6630000214791,response,,,,10,A,,,,,Space,keypress(Space),,,,silence,,,,-- -- --- ------ ------- --------- ----------- --------<br>--------- -------- --- ------- -- ------- ---- -- ------<br>of --- -------- -------- ---------- ---- ---- ---- ------<br>-- --------- -- ---- -- --- -- --- ------- -- - -----<br>---------- -- -- -- ---- ----- -- ------ -- --- ------<br>-------,279029.0650000097,279028.4550000215,278477.436,278493.24500001967,278510.792,279044.59,,17,of
screen,html.Screen,1_4_0_1_18,2021-03-14T00:33:22.120Z,,,,,,,,,,,,,,,,48,,,,,,,,,,,,,,527.6900000221212,response,,,,10,A,,,,,Space,keypress(Space),,,,silence,,,,-- -- --- ------ ------- --------- ----------- --------<br>--------- -------- --- ------- -- ------- ---- -- ------<br>-- ten -------- -------- ---------- ---- ---- ---- ------<br>-- --------- -- ---- -- --- -- --- ------- -- - -----<br>---------- -- -- -- ---- ----- -- ------ -- --- ------<br>-------,279573.01500000176,279572.28000002215,279027.865,279029.3150000216,279044.59,279578.333,,18,ten
screen,html.Screen,1_4_0_1_19,2021-03-14T00:33:22.801Z,,,,,,,,,,,,,,,,48,,,,,,,,,,,,,,674.8320000019157,response,,,,10,A,,,,,Space,keypress(Space),,,,silence,,,,-- -- --- ------ ------- --------- ----------- --------<br>--------- -------- --- ------- -- ------- ---- -- ------<br>-- --- thousand -------- ---------- ---- ---- ---- ------<br>-- --------- -- ---- -- --- -- --- ------- -- - -----<br>---------- -- -- -- ---- ----- -- ------ -- --- ------<br>-------,280253.9950000064,280253.1650000019,279561.636,279573.2250000001,279578.333,280262.125,,19,thousand
screen,html.Screen,1_4_0_1_20,2021-03-14T00:33:23.336Z,,,,,,,,,,,,,,,,48,,,,,,,,,,,,,,526.2850000082981,response,,,,10,A,,,,,Space,keypress(Space),,,,silence,,,,-- -- --- ------ ------- --------- ----------- --------<br>--------- -------- --- ------- -- ------- ---- -- ------<br>-- --- -------- dollars. ---------- ---- ---- ---- ------<br>-- --------- -- ---- -- --- -- --- ------- -- - -----<br>---------- -- -- -- ---- ----- -- ------ -- --- ------<br>-------,280789.1349999991,280788.4100000083,280245.518,280254.1900000069,280262.125,280795.895,,20,dollars.
screen,html.Screen,1_4_0_1_21,2021-03-14T00:33:23.976Z,,,,,,,,,,,,,,,,48,,,,,,,,,,,,,,632.5250000110827,response,,,,10,A,,,,,Space,keypress(Space),,,,silence,,,,-- -- --- ------ ------- --------- ----------- --------<br>--------- -------- --- ------- -- ------- ---- -- ------<br>-- --- -------- -------- Concealing ---- ---- ---- ------<br>-- --------- -- ---- -- --- -- --- ------- -- - -----<br>---------- -- -- -- ---- ----- -- ------ -- --- ------<br>-------,281429.10500001744,281428.4200000111,280779.29,280789.3350000086,280795.895,281463.18,,21,Concealing
screen,html.Screen,1_4_0_1_22,2021-03-14T00:33:24.577Z,,,,,,,,,,,,,,,,48,,,,,,,,,,,,,,565.2700000125333,response,,,,10,A,,,,,Space,keypress(Space),,,,silence,,,,-- -- --- ------ ------- --------- ----------- --------<br>--------- -------- --- ------- -- ------- ---- -- ------<br>-- --- -------- -------- ---------- more ---- ---- ------<br>-- --------- -- ---- -- --- -- --- ------- -- - -----<br>---------- -- -- -- ---- ----- -- ------ -- --- ------<br>-------,282029.2650000192,282028.4500000125,281446.515,281429.300000018,281463.18,282047.002,,22,more
screen,html.Screen,1_4_0_1_23,2021-03-14T00:33:25.152Z,,,,,,,,,,,,,,,,48,,,,,,,,,,,,,,557.303000015323,response,,,,10,A,,,,,Space,keypress(Space),,,,silence,,,,-- -- --- ------ ------- --------- ----------- --------<br>--------- -------- --- ------- -- ------- ---- -- ------<br>-- --- -------- -------- ---------- ---- than ---- ------<br>-- --------- -- ---- -- --- -- --- ------- -- - -----<br>---------- -- -- -- ---- ----- -- ------ -- --- ------<br>-------,282605.06500001065,282604.3050000153,282013.625,282029.4700000086,282047.002,282614.058,,23,than
screen,html.Screen,1_4_0_1_24,2021-03-14T00:33:25.720Z,,,,,,,,,,,,,,,,48,,,,,,,,,,,,,,558.2920000079903,response,,,,10,A,,,,,Space,keypress(Space),,,,silence,,,,-- -- --- ------ ------- --------- ----------- --------<br>--------- -------- --- ------- -- ------- ---- -- ------<br>-- --- -------- -------- ---------- ---- ---- that ------<br>-- --------- -- ---- -- --- -- --- ------- -- - -----<br>---------- -- -- -- ---- ----- -- ------ -- --- ------<br>-------,283173.0450000032,283172.350000008,282597.431,282605.27,282614.058,283181.167,,24,that
screen,html.Screen,1_4_0_1_25,2021-03-14T00:33:26.336Z,,,,,,,,,,,,,,,,48,,,,,,,,,,,,,,607.198000014876,response,,,,10,A,,,,,Space,keypress(Space),,,,silence,,,,-- -- --- ------ ------- --------- ----------- --------<br>--------- -------- --- ------- -- ------- ---- -- ------<br>-- --- -------- -------- ---------- ---- ---- ---- amount<br>-- --------- -- ---- -- --- -- --- ------- -- - -----<br>---------- -- -- -- ---- ----- -- ------ -- --- ------<br>-------,283789.145000017,283788.3650000149,283164.559,283173.2450000127,283181.167,283798.412,,25,amount
screen,html.Screen,1_4_0_1_26,2021-03-14T00:33:26.889Z,,,,,,,,,,,,,,,,48,,,,,,,,,,,,,,542.027999999933,response,,,,10,A,,,,,Space,keypress(Space),,,,silence,,,,-- -- --- ------ ------- --------- ----------- --------<br>--------- -------- --- ------- -- ------- ---- -- ------<br>-- --- -------- -------- ---------- ---- ---- ---- ------<br>to --------- -- ---- -- --- -- --- ------- -- - -----<br>---------- -- -- -- ---- ----- -- ------ -- --- ------<br>-------,284341.2499999977,284340.43999999994,283781.737,283789.3500000064,283798.412,284348.849,,26,to
screen,html.Screen,1_4_0_1_27,2021-03-14T00:33:27.496Z,,,,,,,,,,,,,,,,48,,,,,,,,,,,,,,599.4960000116262,response,,,,10,A,,,,,Space,keypress(Space),,,,silence,,,,-- -- --- ------ ------- --------- ----------- --------<br>--------- -------- --- ------- -- ------- ---- -- ------<br>-- --- -------- -------- ---------- ---- ---- ---- ------<br>-- transport -- ---- -- --- -- --- ------- -- - -----<br>---------- -- -- -- ---- ----- -- ------ -- --- ------<br>-------,284949.1500000004,284948.3450000116,284332.18,284341.4600000251,284348.849,284966.077,,27,transport
screen,html.Screen,1_4_0_1_28,2021-03-14T00:33:28.218Z,,,,,,,,,,,,,,,,48,,,,,,,,,,,,,,702.3130000061938,response,,,,10,A,,,,,Space,keypress(Space),,,,silence,,,,-- -- --- ------ ------- --------- ----------- --------<br>--------- -------- --- ------- -- ------- ---- -- ------<br>-- --- -------- -------- ---------- ---- ---- ---- ------<br>-- --------- it ---- -- --- -- --- ------- -- - -----<br>---------- -- -- -- ---- ----- -- ------ -- --- ------<br>-------,285670.3100000159,285668.3900000062,284949.341,284949.35500001884,284966.077,285683.217,,28,it
screen,html.Screen,1_4_0_1_29,2021-03-14T00:33:28.888Z,,,,,,,,,,,,,,,,48,,,,,,,,,,,,,,657.1380000220961,response,,,,10,A,,,,,Space,keypress(Space),,,,silence,,,,-- -- --- ------ ------- --------- ----------- --------<br>--------- -------- --- ------- -- ------- ---- -- ------<br>-- --- -------- -------- ---------- ---- ---- ---- ------<br>-- --------- -- into -- --- -- --- ------- -- - -----<br>---------- -- -- -- ---- ----- -- ------ -- --- ------<br>-------,286341.16000001086,286340.3550000221,285666.591,285670.540000021,285683.217,286350.477,,29,into
screen,html.Screen,1_4_0_1_30,2021-03-14T00:33:29.657Z,,,,,,,,,,,,,,,,48,,,,,,,,,,,,,,757.9380000242381,response,,,,10,A,,,,,Space,keypress(Space),,,,silence,,,,-- -- --- ------ ------- --------- ----------- --------<br>--------- -------- --- ------- -- ------- ---- -- ------<br>-- --- -------- -------- ---------- ---- ---- ---- ------<br>-- --------- -- ---- or --- -- --- ------- -- - -----<br>---------- -- -- -- ---- ----- -- ------ -- --- ------<br>-------,287109.1900000174,287108.41500002425,286333.804,286341.37500001816,286350.477,287117.755,,30,or
screen,html.Screen,1_4_0_1_31,2021-03-14T00:33:30.352Z,,,,,,,,,,,,,,,,48,,,,,,,,,,,,,,686.5900000113761,response,,,,10,A,,,,,Space,keypress(Space),,,,silence,,,,-- -- --- ------ ------- --------- ----------- --------<br>--------- -------- --- ------- -- ------- ---- -- ------<br>-- --- -------- -------- ---------- ---- ---- ---- ------<br>-- --------- -- ---- -- out -- --- ------- -- - -----<br>---------- -- -- -- ---- ----- -- ------ -- --- ------<br>-------,287805.1400000113,287804.3450000114,287101.091,287109.40000001574,287117.755,287818.396,,31,out
screen,html.Screen,1_4_0_1_32,2021-03-14T00:33:31.000Z,,,,,,,,,,,,,,,,48,,,,,,,,,,,,,,633.9290000202018,response,,,,10,A,,,,,Space,keypress(Space),,,,silence,,,,-- -- --- ------ ------- --------- ----------- --------<br>--------- -------- --- ------- -- ------- ---- -- ------<br>-- --- -------- -------- ---------- ---- ---- ---- ------<br>-- --------- -- ---- -- --- of --- ------- -- - -----<br>---------- -- -- -- ---- ----- -- ------ -- --- ------<br>-------,288453.02500002435,288452.3250000202,287801.673,287805.3599999985,287818.396,288468.923,,32,of
screen,html.Screen,1_4_0_1_33,2021-03-14T00:33:31.649Z,,,,,,,,,,,,,,,,48,,,,,,,,,,,,,,631.4820000046748,response,,,,10,A,,,,,Space,keypress(Space),,,,silence,,,,-- -- --- ------ ------- --------- ----------- --------<br>--------- -------- --- ------- -- ------- ---- -- ------<br>-- --- -------- -------- ---------- ---- ---- ---- ------<br>-- --------- -- ---- -- --- -- the ------- -- - -----<br>---------- -- -- -- ---- ----- -- ------ -- --- ------<br>-------,289101.2200000114,289100.4050000047,288452.188,288453.2350000227,288468.923,289125.2,,33,the
screen,html.Screen,1_4_0_1_34,2021-03-14T00:33:32.289Z,,,,,,,,,,,,,,,,48,,,,,,,,,,,,,,615.2800000076531,response,,,,10,A,,,,,Space,keypress(Space),,,,silence,,,,-- -- --- ------ ------- --------- ----------- --------<br>--------- -------- --- ------- -- ------- ---- -- ------<br>-- --- -------- -------- ---------- ---- ---- ---- ------<br>-- --------- -- ---- -- --- -- --- country -- - -----<br>---------- -- -- -- ---- ----- -- ------ -- --- ------<br>-------,289741.2900000054,289740.48000000766,289086.042,289101.4350000187,289125.2,289753.309,,34,country
screen,html.Screen,1_4_0_1_35,2021-03-14T00:33:32.914Z,,,,,,,,,,,,,,,,48,,,,,,,,,,,,,,612.0310000184691,response,,,,10,A,,,,,Space,keypress(Space),,,,silence,,,,-- -- --- ------ ------- --------- ----------- --------<br>--------- -------- --- ------- -- ------- ---- -- ------<br>-- --- -------- -------- ---------- ---- ---- ---- ------<br>-- --------- -- ---- -- --- -- --- ------- is - -----<br>---------- -- -- -- ---- ----- -- ------ -- --- ------<br>-------,290366.1800000118,290365.3400000185,289736.566,289741.51000002166,289753.309,290370.44,,35,is
screen,html.Screen,1_4_0_1_36,2021-03-14T00:33:33.489Z,,,,,,,,,,,,,,,,48,,,,,,,,,,,,,,570.330000015616,response,,,,10,A,,,,,Space,keypress(Space),,,,silence,,,,-- -- --- ------ ------- --------- ----------- --------<br>--------- -------- --- ------- -- ------- ---- -- ------<br>-- --- -------- -------- ---------- ---- ---- ---- ------<br>-- --------- -- ---- -- --- -- --- ------- -- a -----<br>---------- -- -- -- ---- ----- -- ------ -- --- ------<br>-------,290941.445000004,290940.7700000156,290353.735,290366.39000001014,290370.44,290954.159,,36,a
screen,html.Screen,1_4_0_1_37,2021-03-14T00:33:34.152Z,,,,,,,,,,,,,,,,48,,,,,,,,,,,,,,650.1760000109207,response,,,,10,A,,,,,Space,keypress(Space),,,,silence,,,,-- -- --- ------ ------- --------- ----------- --------<br>--------- -------- --- ------- -- ------- ---- -- ------<br>-- --- -------- -------- ---------- ---- ---- ---- ------<br>-- --------- -- ---- -- --- -- --- ------- -- - crime<br>---------- -- -- -- ---- ----- -- ------ -- --- ------<br>-------,291605.11500001303,291604.3350000109,290937.544,290941.65500000236,290954.159,291621.486,,37,crime
screen,html.Screen,1_4_0_1_38,2021-03-14T00:33:34.784Z,,,,,,,,,,,,,,,,48,,,,,,,,,,,,,,614.8090000097291,response,,,,10,A,,,,,Space,keypress(Space),,,,silence,,,,-- -- --- ------ ------- --------- ----------- --------<br>--------- -------- --- ------- -- ------- ---- -- ------<br>-- --- -------- -------- ---------- ---- ---- ---- ------<br>-- --------- -- ---- -- --- -- --- ------- -- - -----<br>punishable -- -- -- ---- ----- -- ------ -- --- ------<br>-------,292236.985000025,292236.2950000097,291604.762,291605.33000002033,291621.486,292259.017,,38,punishable
screen,html.Screen,1_4_0_1_39,2021-03-14T00:33:35.416Z,,,,,,,,,,,,,,,,48,,,,,,,,,,,,,,609.2580000152811,response,,,,10,A,,,,,Space,keypress(Space),,,,silence,,,,-- -- --- ------ ------- --------- ----------- --------<br>--------- -------- --- ------- -- ------- ---- -- ------<br>-- --- -------- -------- ---------- ---- ---- ---- ------<br>-- --------- -- ---- -- --- -- --- ------- -- - -----<br>---------- by -- -- ---- ----- -- ------ -- --- ------<br>-------,292868.9450000238,292868.2750000153,292221.918,292237.1850000054,292259.017,292872.41,,39,by
screen,html.Screen,1_4_0_1_40,2021-03-14T00:33:36.112Z,,,,,,,,,,,,,,,,48,,,,,,,,,,,,,,691.865000011574,response,,,,10,A,,,,,Space,keypress(Space),,,,silence,,,,-- -- --- ------ ------- --------- ----------- --------<br>--------- -------- --- ------- -- ------- ---- -- ------<br>-- --- -------- -------- ---------- ---- ---- ---- ------<br>-- --------- -- ---- -- --- -- --- ------- -- - -----<br>---------- -- up -- ---- ----- -- ------ -- --- ------<br>-------,293564.9250000133,293564.27500001155,292855.748,292869.1450000042,292872.41,293572.874,,40,up
screen,html.Screen,1_4_0_1_41,2021-03-14T00:33:36.696Z,,,,,,,,,,,,,,,,48,,,,,,,,,,,,,,575.4210000208695,response,,,,10,A,,,,,Space,keypress(Space),,,,silence,,,,-- -- --- ------ ------- --------- ----------- --------<br>--------- -------- --- ------- -- ------- ---- -- ------<br>-- --- -------- -------- ---------- ---- ---- ---- ------<br>-- --------- -- ---- -- --- -- --- ------- -- - -----<br>---------- -- -- to ---- ----- -- ------ -- --- ------<br>-------,294148.9700000093,294148.2950000209,293556.317,293565.1250000228,293572.874,294156.732,,41,to
screen,html.Screen,1_4_0_1_42,2021-03-14T00:33:37.336Z,,,,,,,,,,,,,,,,48,,,,,,,,,,,,,,631.4730000189156,response,,,,10,A,,,,,Space,keypress(Space),,,,silence,,,,-- -- --- ------ ------- --------- ----------- --------<br>--------- -------- --- ------- -- ------- ---- -- ------<br>-- --- -------- -------- ---------- ---- ---- ---- ------<br>-- --------- -- ---- -- --- -- --- ------- -- - -----<br>---------- -- -- -- five ----- -- ------ -- --- ------<br>-------,294788.9350000187,294788.20500001893,294140.124,294149.1800000076,294156.732,294809.845,,42,five
