sender,sender_type,sender_id,timestamp,meta,,Provo_ID,age,artist_name,correct,correctResponse,distraction,duration,ended_on,familiarity,gender,headphone_check_performance,item,list,music_genres,offensiveness,pleasantness,position_correct,preference,response,response_action,song_name,sound,stimulus_1,stimulus_2,stimulus_3,text,time_commit,time_end,time_render,time_run,time_show,time_switch,url,word,word_ID
Demography form,html.Form,0,2021-03-07T12:57:58.413Z,"{""labjs_version"":""20.2.2"",""labjs_build"":{""flavor"":""production"",""commit"":""a25486e0c714a0ae2ce03ff94b7bb6896854dcfa""},""location"":""https://run.pavlovia.org/mvasilev/spr_music_pilot_a/?__pilotToken=c51ce410c124a10e0db5e4b97fc2af39&__oauthToken=cc604b6e7d449fc5fe7a311b47aeaf3d810b53f5795c726b331b83656855f6f4"",""userAgent"":""Mozilla/5.0 (Windows NT 10.0; Win64; x64) AppleWebKit/537.36 (KHTML, like Gecko) Chrome/88.0.4324.190 Safari/537.36"",""platform"":""Win32"",""language"":""de-DE"",""locale"":""en-US"",""timeZone"":""Europe/London"",""timezoneOffset"":0,""screen_width"":2560,""screen_height"":1440,""scroll_width"":2560,""scroll_height"":1230,""window_innerWidth"":2560,""window_innerHeight"":1278,""devicePixelRatio"":1}",,,21,,,,,16794.523000006444,form submission,,female,,,,,,,,,,,,,,,,,21080.60500002466,21079.670000006445,4244.042,4259.480000007898,4285.147,21088.253,"{""__pilotToken"":""c51ce410c124a10e0db5e4b97fc2af39"",""__oauthToken"":""cc604b6e7d449fc5fe7a311b47aeaf3d810b53f5795c726b331b83656855f6f4""}",,
Instructions,html.Page,1,2021-03-07T12:57:59.906Z,,,,,,,,,1484.7420000531965,form submission,,,,,,,,,,,,,,,,,,,22573.41000007,22572.995000053197,21071.75,21081.2900000019,21088.253,22591.042,,,
Holding screen,html.Screen,2_0,2021-03-07T12:58:06.916Z,,,,,,,,,7002.9339999999975,timeout,,,,,,,,,,,,,,,,,,,29584.185000043362,29577.296,22556.043,22573.65000003483,22591.042,29593.976,,,
screen,html.Screen,2_1_0,2021-03-07T12:58:08.044Z,,,54,,,,,,1116.6240001076621,response,,,,100,,,,,,,Space,keypress(Space),,,,,,At --- ---- --- ------ ----- ------- ---- -- --- ------- --<br>------- ---------- ------ -- ----- -- ----- -- ---- ------<br>--- ----- --- --- ------ -------- ----- --- ------ ----- --<br>----- ----- ---------- --- --- ------ ------ ---- -- ------<br>------- --- ------ ----- --- ---- ------- -- ---- --- --<br>------- ------,30712.085000006482,30710.60000010766,29577.296,29584.64500005357,29593.976,30728.071,,0,At
screen,html.Screen,2_1_1,2021-03-07T12:58:08.404Z,,,54,,,,,,342.4590000263379,response,,,,100,,,,,,,Space,keypress(Space),,,,,,-- the ---- --- ------ ----- ------- ---- -- --- ------- --<br>------- ---------- ------ -- ----- -- ----- -- ---- ------<br>--- ----- --- --- ------ -------- ----- --- ------ ----- --<br>----- ----- ---------- --- --- ------ ------ ---- -- ------<br>------- --- ------ ----- --- ---- ------- -- ---- --- --<br>------- ------,31071.465000044554,31070.530000026338,30694.79,30712.45000010822,30728.071,31078.163,,1,the
screen,html.Screen,2_1_2,2021-03-07T12:58:08.716Z,,,54,,,,,,304.2620000761817,response,,,,100,,,,,,,Space,keypress(Space),,,,,,-- --- time --- ------ ----- ------- ---- -- --- ------- --<br>------- ---------- ------ -- ----- -- ----- -- ---- ------<br>--- ----- --- --- ------ -------- ----- --- ------ ----- --<br>----- ----- ---------- --- --- ------ ------ ---- -- ------<br>------- --- ------ ----- --- ---- ------- -- ---- --- --<br>------- ------,31383.350000018254,31382.425000076182,31061.66,31071.755000040866,31078.163,31395.128,,2,time
screen,html.Screen,2_1_3,2021-03-07T12:58:09.012Z,,,54,,,,,,283.2770000132987,response,,,,100,,,,,,,Space,keypress(Space),,,,,,-- --- ---- the ------ ----- ------- ---- -- --- ------- --<br>------- ---------- ------ -- ----- -- ----- -- ---- ------<br>--- ----- --- --- ------ -------- ----- --- ------ ----- --<br>----- ----- ---------- --- --- ------ ------ ---- -- ------<br>------- --- ------ ----- --- ---- ------- -- ---- --- --<br>------- ------,31679.31000003591,31678.4050000133,31378.536,31383.64500005264,31395.128,31695.362,,3,the
screen,html.Screen,2_1_4,2021-03-07T12:58:09.323Z,,,54,,,,,,294.99300001627853,response,,,,100,,,,,,,Space,keypress(Space),,,,,,-- --- ---- --- French ----- ------- ---- -- --- ------- --<br>------- ---------- ------ -- ----- -- ----- -- ---- ------<br>--- ----- --- --- ------ -------- ----- --- ------ ----- --<br>----- ----- ---------- --- --- ------ ------ ---- -- ------<br>------- --- ------ ----- --- ---- ------- -- ---- --- --<br>------- ------,31991.265000076964,31990.35500001628,31678.709,31679.595000110567,31695.362,32012.237,,4,French
screen,html.Screen,2_1_5,2021-03-07T12:58:09.723Z,,,54,,,,,,378.0930000820299,response,,,,100,,,,,,,Space,keypress(Space),,,,,,-- --- ---- --- ------ crown ------- ---- -- --- ------- --<br>------- ---------- ------ -- ----- -- ----- -- ---- ------<br>--- ----- --- --- ------ -------- ----- --- ------ ----- --<br>----- ----- ---------- --- --- ------ ------ ---- -- ------<br>------- --- ------ ----- --- ---- ------- -- ---- --- --<br>------- ------,32391.210000030696,32390.33000008203,31978.909,31991.550000035204,32012.237,32395.811,,5,crown
screen,html.Screen,2_1_6,2021-03-07T12:58:10.123Z,,,54,,,,,,394.45400007603166,response,,,,100,,,,,,,Space,keypress(Space),,,,,,-- --- ---- --- ------ ----- secured ---- -- --- ------- --<br>------- ---------- ------ -- ----- -- ----- -- ---- ------<br>--- ----- --- --- ------ -------- ----- --- ------ ----- --<br>----- ----- ---------- --- --- ------ ------ ---- -- ------<br>------- --- ------ ----- --- ---- ------- -- ---- --- --<br>------- ------,32791.1600000225,32790.26500007603,32379.155,32391.50500006508,32395.811,32796.092,,6,secured
screen,html.Screen,2_1_7,2021-03-07T12:58:10.484Z,,,54,,,,,,354.98800009786646,response,,,,100,,,,,,,Space,keypress(Space),,,,,,-- --- ---- --- ------ ----- ------- much -- --- ------- --<br>------- ---------- ------ -- ----- -- ----- -- ---- ------<br>--- ----- --- --- ------ -------- ----- --- ------ ----- --<br>----- ----- ---------- --- --- ------ ------ ---- -- ------<br>------- --- ------ ----- --- ---- ------- -- ---- --- --<br>------- ------,33152.02000003774,33151.08000009786,32779.463,32791.43500002101,32796.092,33162.942,,7,much
screen,html.Screen,2_1_8,2021-03-07T12:58:10.867Z,,,54,,,,,,371.1730000458556,response,,,,100,,,,,,,Space,keypress(Space),,,,,,-- --- ---- --- ------ ----- ------- ---- of --- ------- --<br>------- ---------- ------ -- ----- -- ----- -- ---- ------<br>--- ----- --- --- ------ -------- ----- --- ------ ----- --<br>----- ----- ---------- --- --- ------ ------ ---- -- ------<br>------- --- ------ ----- --- ---- ------- -- ---- --- --<br>------- ------,33534.935000003316,33534.11500004586,33146.359,33152.289999998175,33162.942,33546.531,,8,of
screen,html.Screen,2_1_9,2021-03-07T12:58:11.275Z,,,54,,,,,,395.53400006839365,response,,,,100,,,,,,,Space,keypress(Space),,,,,,-- --- ---- --- ------ ----- ------- ---- -- its ------- --<br>------- ---------- ------ -- ----- -- ----- -- ---- ------<br>--- ----- --- --- ------ -------- ----- --- ------ ----- --<br>----- ----- ---------- --- --- ------ ------ ---- -- ------<br>------- --- ------ ----- --- ---- ------- -- ---- --- --<br>------- ------,33942.975000012666,33942.065000068396,33529.938,33535.20500008017,33546.531,33946.837,,9,its
screen,html.Screen,2_1_10,2021-03-07T12:58:11.651Z,,,54,,,,,,371.21300000167685,response,,,,100,,,,,,,Space,keypress(Space),,,,,,-- --- ---- --- ------ ----- ------- ---- -- --- revenue --<br>------- ---------- ------ -- ----- -- ----- -- ---- ------<br>--- ----- --- --- ------ -------- ----- --- ------ ----- --<br>----- ----- ---------- --- --- ------ ------ ---- -- ------<br>------- --- ------ ----- --- ---- ------- -- ---- --- --<br>------- ------,34318.94500006456,34318.05000000168,33930.201,33943.235000013374,33946.837,34330.372,,10,revenue
screen,html.Screen,2_1_11,2021-03-07T12:58:11.995Z,,,54,,,,,,331.6330000492453,response,,,,100,,,,,,,Space,keypress(Space),,,,,,-- --- ---- --- ------ ----- ------- ---- -- --- ------- by<br>------- ---------- ------ -- ----- -- ----- -- ---- ------<br>--- ----- --- --- ------ -------- ----- --- ------ ----- --<br>----- ----- ---------- --- --- ------ ------ ---- -- ------<br>------- --- ------ ----- --- ---- ------- -- ---- --- --<br>------- ------,34662.950000027195,34662.00500004925,34313.794,34319.22000006307,34330.372,34680.652,,11,by
screen,html.Screen,2_1_12,2021-03-07T12:58:12.331Z,,,54,,,,,,317.28800003021024,response,,,,100,,,,,,,Space,keypress(Space),,,,,,-- --- ---- --- ------ ----- ------- ---- -- --- ------- --<br>issuing ---------- ------ -- ----- -- ----- -- ---- ------<br>--- ----- --- --- ------ -------- ----- --- ------ ----- --<br>----- ----- ---------- --- --- ------ ------ ---- -- ------<br>------- --- ------ ----- --- ---- ------- -- ---- --- --<br>------- ------,34998.93500003964,34997.94000003021,34647.313,34663.2100000279,34680.652,35014.156,,12,issuing
screen,html.Screen,2_1_13,2021-03-07T12:58:12.691Z,,,54,,,,,,343.6840000696975,response,,,,100,,,,,,,Space,keypress(Space),,,,,,-- --- ---- --- ------ ----- ------- ---- -- --- ------- --<br>------- government ------ -- ----- -- ----- -- ---- ------<br>--- ----- --- --- ------ -------- ----- --- ------ ----- --<br>----- ----- ---------- --- --- ------ ------ ---- -- ------<br>------- --- ------ ----- --- ---- ------- -- ---- --- --<br>------- ------,35358.72500005644,35357.8400000697,34997.569,34999.195000040345,35014.156,35364.388,,13,government
screen,html.Screen,2_1_14,2021-03-07T12:58:13.051Z,,,54,,,,,,353.4420000960017,response,,,,100,,,,,,,Space,keypress(Space),,,,,,-- --- ---- --- ------ ----- ------- ---- -- --- ------- --<br>------- ---------- bonds. -- ----- -- ----- -- ---- ------<br>--- ----- --- --- ------ -------- ----- --- ------ ----- --<br>----- ----- ---------- --- --- ------ ------ ---- -- ------<br>------- --- ------ ----- --- ---- ------- -- ---- --- --<br>------- ------,35718.75500003807,35717.830000096,35347.789,35358.975000097416,35364.388,35731.234,,14,bonds.
screen,html.Screen,2_1_15,2021-03-07T12:58:13.427Z,,,54,,,,,,362.45600000879494,response,,,,100,,,,,,,Space,keypress(Space),,,,,,-- --- ---- --- ------ ----- ------- ---- -- --- ------- --<br>------- ---------- ------ In ----- -- ----- -- ---- ------<br>--- ----- --- --- ------ -------- ----- --- ------ ----- --<br>----- ----- ---------- --- --- ------ ------ ---- -- ------<br>------- --- ------ ----- --- ---- ------- -- ---- --- --<br>------- ------,36094.550000038,36093.69000000879,35714.703,35719.110000063665,35731.234,36098.243,,15,In
screen,html.Screen,2_1_16,2021-03-07T12:58:13.763Z,,,54,,,,,,331.40700006370025,response,,,,100,,,,,,,Space,keypress(Space),,,,,,"-- --- ---- --- ------ ----- ------- ---- -- --- ------- --<br>------- ---------- ------ -- 1727, -- ----- -- ---- ------<br>--- ----- --- --- ------ -------- ----- --- ------ ----- --<br>----- ----- ---------- --- --- ------ ------ ---- -- ------<br>------- --- ------ ----- --- ---- ------- -- ---- --- --<br>------- ------",36430.505000054836,36429.6500000637,36081.559,36094.81500007678,36098.243,36450.413,,16,"1727,"
screen,html.Screen,2_1_17,2021-03-07T12:58:14.107Z,,,54,,,,,,323.1720000753994,response,,,,100,,,,,,,Space,keypress(Space),,,,,,-- --- ---- --- ------ ----- ------- ---- -- --- ------- --<br>------- ---------- ------ -- ----- in ----- -- ---- ------<br>--- ----- --- --- ------ -------- ----- --- ------ ----- --<br>----- ----- ---------- --- --- ------ ------ ---- -- ------<br>------- --- ------ ----- --- ---- ------- -- ---- --- --<br>------- ------,36774.440000066534,36773.5850000754,36415.158,36430.765000055544,36450.413,36781.897,,17,in
screen,html.Screen,2_1_18,2021-03-07T12:58:14.451Z,,,54,,,,,,335.6280000087572,response,,,,100,,,,,,,Space,keypress(Space),,,,,,-- --- ---- --- ------ ----- ------- ---- -- --- ------- --<br>------- ---------- ------ -- ----- -- order -- ---- ------<br>--- ----- --- --- ------ -------- ----- --- ------ ----- --<br>----- ----- ---------- --- --- ------ ------ ---- -- ------<br>------- --- ------ ----- --- ---- ------- -- ---- --- --<br>------- ------,37118.340000044554,37117.525000008754,36765.36,36774.69000010751,36781.897,37132.258,,18,order
screen,html.Screen,2_1_19,2021-03-07T12:58:14.850Z,,,54,,,,,,385.1920000430255,response,,,,100,,,,,,,Space,keypress(Space),,,,,,-- --- ---- --- ------ ----- ------- ---- -- --- ------- --<br>------- ---------- ------ -- ----- -- ----- to ---- ------<br>--- ----- --- --- ------ -------- ----- --- ------ ----- --<br>----- ----- ---------- --- --- ------ ------ ---- -- ------<br>------- --- ------ ----- --- ---- ------- -- ---- --- --<br>------- ------,37518.270000000484,37517.45000004303,37115.611,37118.59500000719,37132.258,37532.518,,19,to
screen,html.Screen,2_1_20,2021-03-07T12:58:15.114Z,,,54,,,,,,248.71700000220153,response,,,,100,,,,,,,Space,keypress(Space),,,,,,-- --- ---- --- ------ ----- ------- ---- -- --- ------- --<br>------- ---------- ------ -- ----- -- ----- -- save ------<br>--- ----- --- --- ------ -------- ----- --- ------ ----- --<br>----- ----- ---------- --- --- ------ ------ ---- -- ------<br>------- --- ------ ----- --- ---- ------- -- ---- --- --<br>------- ------,37781.93000005558,37781.2350000022,37515.839,37518.525000079535,37532.518,37799.285,,20,save
screen,html.Screen,2_1_21,2021-03-07T12:58:15.411Z,,,54,,,,,,278.1750000586326,response,,,,100,,,,,,,Space,keypress(Space),,,,,,"-- --- ---- --- ------ ----- ------- ---- -- --- ------- --<br>------- ---------- ------ -- ----- -- ----- -- ---- money,<br>--- ----- --- --- ------ -------- ----- --- ------ ----- --<br>----- ----- ---------- --- --- ------ ------ ---- -- ------<br>------- --- ------ ----- --- ---- ------- -- ---- --- --<br>------- ------",38078.33000004757,38077.460000058636,37782.684,37782.10500010755,37799.285,38082.879,,21,"money,"
screen,html.Screen,2_1_22,2021-03-07T12:58:15.642Z,,,54,,,,,,226.4810000720463,response,,,,100,,,,,,,Space,keypress(Space),,,,,,-- --- ---- --- ------ ----- ------- ---- -- --- ------- --<br>------- ---------- ------ -- ----- -- ----- -- ---- ------<br>the ----- --- --- ------ -------- ----- --- ------ ----- --<br>----- ----- ---------- --- --- ------ ------ ---- -- ------<br>------- --- ------ ----- --- ---- ------- -- ---- --- --<br>------- ------,38310.180000029504,38309.36000007205,38066.222,38078.60000000801,38082.879,38316.299,,22,the
screen,html.Screen,2_1_23,2021-03-07T12:58:16.148Z,,,54,,,,,,498.95600002317224,response,,,,100,,,,,,,Space,keypress(Space),,,,,,-- --- ---- --- ------ ----- ------- ---- -- --- ------- --<br>------- ---------- ------ -- ----- -- ----- -- ---- ------<br>--- state --- --- ------ -------- ----- --- ------ ----- --<br>----- ----- ---------- --- --- ------ ------ ---- -- ------<br>------- --- ------ ----- --- ---- ------- -- ---- --- --<br>------- ------,38816.14500004798,38815.25500002317,38299.725,38310.44000003021,38316.299,38833.375,,23,state
screen,html.Screen,2_1_24,2021-03-07T12:58:16.179Z,,,54,,,,,,12.560000106692314,response,,,,100,,,,,,,Space,keypress(Space),,,,,,-- --- ---- --- ------ ----- ------- ---- -- --- ------- --<br>------- ---------- ------ -- ----- -- ----- -- ---- ------<br>--- ----- cut --- ------ -------- ----- --- ------ ----- --<br>----- ----- ---------- --- --- ------ ------ ---- -- ------<br>------- --- ------ ----- --- ---- ------- -- ---- --- --<br>------- ------,38846.69000003487,38845.93500010669,38816.768,38816.41000008676,38833.375,38866.719,,24,cut
screen,html.Screen,2_1_25,2021-03-07T12:58:16.209Z,,,54,,,,,,9.616000037218328,response,,,,100,,,,,,,Space,keypress(Space),,,,,,-- --- ---- --- ------ ----- ------- ---- -- --- ------- --<br>------- ---------- ------ -- ----- -- ----- -- ---- ------<br>--- ----- --- the ------ -------- ----- --- ------ ----- --<br>----- ----- ---------- --- --- ------ ------ ---- -- ------<br>------- --- ------ ----- --- ---- ------- -- ---- --- --<br>------- ------,38877.10000004154,38876.335000037216,38850.06,38846.959999995306,38866.719,38900.078,,25,the
screen,html.Screen,2_1_26,2021-03-07T12:58:16.256Z,,,54,,,,,,23.3320000467138,response,,,,100,,,,,,,Space,keypress(Space),,,,,,-- --- ---- --- ------ ----- ------- ---- -- --- ------- --<br>------- ---------- ------ -- ----- -- ----- -- ---- ------<br>--- ----- --- --- bonds' -------- ----- --- ------ ----- --<br>----- ----- ---------- --- --- ------ ------ ---- -- ------<br>------- --- ------ ----- --- ---- ------- -- ---- --- --<br>------- ------,38924.20000000857,38923.410000046715,38883.411,38877.350000082515,38900.078,38933.37,,26,bonds'
screen,html.Screen,2_1_27,2021-03-07T12:58:16.287Z,,,54,,,,,,20.480000048984948,response,,,,100,,,,,,,Space,keypress(Space),,,,,,-- --- ---- --- ------ ----- ------- ---- -- --- ------- --<br>------- ---------- ------ -- ----- -- ----- -- ---- ------<br>--- ----- --- --- ------ interest ----- --- ------ ----- --<br>----- ----- ---------- --- --- ------ ------ ---- -- ------<br>------- --- ------ ----- --- ---- ------- -- ---- --- --<br>------- ------,38954.61500005331,38953.85000004899,38916.764,38924.450000049546,38933.37,38966.791,,27,interest
screen,html.Screen,2_1_28,2021-03-07T12:58:16.319Z,,,54,,,,,,19.674000081809936,response,,,,100,,,,,,,Space,keypress(Space),,,,,,-- --- ---- --- ------ ----- ------- ---- -- --- ------- --<br>------- ---------- ------ -- ----- -- ----- -- ---- ------<br>--- ----- --- --- ------ -------- rate. --- ------ ----- --<br>----- ----- ---------- --- --- ------ ------ ---- -- ------<br>------- --- ------ ----- --- ---- ------- -- ---- --- --<br>------- ------,38987.309999996796,38986.46500008181,38950.13,38954.86500009429,38966.791,39000.146,,28,rate.
screen,html.Screen,2_1_29,2021-03-07T12:58:16.350Z,,,54,,,,,,16.5040000050285,response,,,,100,,,,,,,Space,keypress(Space),,,,,,-- --- ---- --- ------ ----- ------- ---- -- --- ------- --<br>------- ---------- ------ -- ----- -- ----- -- ---- ------<br>--- ----- --- --- ------ -------- ----- The ------ ----- --<br>----- ----- ---------- --- --- ------ ------ ---- -- ------<br>------- --- ------ ----- --- ---- ------- -- ---- --- --<br>------- ------,39017.560000065714,39016.65000000503,38983.474,38987.569999997504,39000.146,39033.509,,29,The
screen,html.Screen,2_1_30,2021-03-07T12:58:16.381Z,,,54,,,,,,14.356000087769644,response,,,,100,,,,,,,Space,keypress(Space),,,,,,-- --- ---- --- ------ ----- ------- ---- -- --- ------- --<br>------- ---------- ------ -- ----- -- ----- -- ---- ------<br>--- ----- --- --- ------ -------- ----- --- market ----- --<br>----- ----- ---------- --- --- ------ ------ ---- -- ------<br>------- --- ------ ----- --- ---- ------- -- ---- --- --<br>------- ------,39048.61500009429,39047.86500008777,39016.829,39017.82000006642,39033.509,39066.857,,30,market
screen,html.Screen,2_1_31,2021-03-07T12:58:16.411Z,,,54,,,,,,10.678000047642854,response,,,,100,,,,,,,Space,keypress(Space),,,,,,-- --- ---- --- ------ ----- ------- ---- -- --- ------- --<br>------- ---------- ------ -- ----- -- ----- -- ---- ------<br>--- ----- --- --- ------ -------- ----- --- ------ value --<br>----- ----- ---------- --- --- ------ ------ ---- -- ------<br>------- --- ------ ----- --- ---- ------- -- ---- --- --<br>------- ------,39078.3250000095,39077.53500004765,39050.187,39048.875000094995,39066.857,39100.181,,31,value
screen,html.Screen,2_1_32,2021-03-07T12:58:16.443Z,,,54,,,,,,9.624000014606281,response,,,,100,,,,,,,Space,keypress(Space),,,,,,-- --- ---- --- ------ ----- ------- ---- -- --- ------- --<br>------- ---------- ------ -- ----- -- ----- -- ---- ------<br>--- ----- --- --- ------ -------- ----- --- ------ ----- of<br>----- ----- ---------- --- --- ------ ------ ---- -- ------<br>------- --- ------ ----- --- ---- ------- -- ---- --- --<br>------- ------,39110.51500006579,39109.8050000146,39083.552,39078.57500005048,39100.181,39133.571,,32,of
screen,html.Screen,2_1_33,2021-03-07T12:58:16.473Z,,,54,,,,,,6.279000035945501,response,,,,100,,,,,,,Space,keypress(Space),,,,,,-- --- ---- --- ------ ----- ------- ---- -- --- ------- --<br>------- ---------- ------ -- ----- -- ----- -- ---- ------<br>--- ----- --- --- ------ -------- ----- --- ------ ----- --<br>these ----- ---------- --- --- ------ ------ ---- -- ------<br>------- --- ------ ----- --- ---- ------- -- ---- --- --<br>------- ------,39140.595000004396,39139.85000003595,39116.902,39110.770000028424,39133.571,39166.932,,33,these
screen,html.Screen,2_1_34,2021-03-07T12:58:16.520Z,,,54,,,,,,20.113000027864473,response,,,,100,,,,,,,Space,keypress(Space),,,,,,-- --- ---- --- ------ ----- ------- ---- -- --- ------- --<br>------- ---------- ------ -- ----- -- ----- -- ---- ------<br>--- ----- --- --- ------ -------- ----- --- ------ ----- --<br>----- bonds ---------- --- --- ------ ------ ---- -- ------<br>------- --- ------ ----- --- ---- ------- -- ---- --- --<br>------- ------,39187.77499999851,39187.045000027865,39150.252,39140.85000008345,39166.932,39200.272,,34,bonds
screen,html.Screen,2_1_35,2021-03-07T12:58:16.551Z,,,54,,,,,,17.888000047649257,response,,,,100,,,,,,,Space,keypress(Space),,,,,,"-- --- ---- --- ------ ----- ------- ---- -- --- ------- --<br>------- ---------- ------ -- ----- -- ----- -- ---- ------<br>--- ----- --- --- ------ -------- ----- --- ------ ----- --<br>----- ----- plummeted, --- --- ------ ------ ---- -- ------<br>------- --- ------ ----- --- ---- ------- -- ---- --- --<br>------- ------",39218.89000001829,39218.16000004765,39183.608,39188.02500003949,39200.272,39233.588,,35,"plummeted,"
screen,html.Screen,2_1_36,2021-03-07T12:58:16.582Z,,,54,,,,,,15.827000085715554,response,,,,100,,,,,,,Space,keypress(Space),,,,,,-- --- ---- --- ------ ----- ------- ---- -- --- ------- --<br>------- ---------- ------ -- ----- -- ----- -- ---- ------<br>--- ----- --- --- ------ -------- ----- --- ------ ----- --<br>----- ----- ---------- and --- ------ ------ ---- -- ------<br>------- --- ------ ----- --- ---- ------- -- ---- --- --<br>------- ------,39250.15500001609,39249.41500008572,39216.962,39219.15500005707,39233.588,39266.942,,36,and
screen,html.Screen,2_1_37,2021-03-07T12:58:16.613Z,,,54,,,,,,13.018000072603172,response,,,,100,,,,,,,Space,keypress(Space),,,,,,-- --- ---- --- ------ ----- ------- ---- -- --- ------- --<br>------- ---------- ------ -- ----- -- ----- -- ---- ------<br>--- ----- --- --- ------ -------- ----- --- ------ ----- --<br>----- ----- ---------- --- the ------ ------ ---- -- ------<br>------- --- ------ ----- --- ---- ------- -- ---- --- --<br>------- ------,39280.66500008572,39279.960000072606,39250.314,39250.400000019,39266.942,39300.342,,37,the
screen,html.Screen,2_1_38,2021-03-07T12:58:16.644Z,,,54,,,,,,10.87300011068146,response,,,,100,,,,,,,Space,keypress(Space),,,,,,-- --- ---- --- ------ ----- ------- ---- -- --- ------- --<br>------- ---------- ------ -- ----- -- ----- -- ---- ------<br>--- ----- --- --- ------ -------- ----- --- ------ ----- --<br>----- ----- ---------- --- --- market ------ ---- -- ------<br>------- --- ------ ----- --- ---- ------- -- ---- --- --<br>------- ------,39311.920000007376,39311.21500011068,39283.674,39280.910000088625,39300.342,39333.699,,38,market
screen,html.Screen,2_1_39,2021-03-07T12:58:16.675Z,,,54,,,,,,8.20600003751315,response,,,,100,,,,,,,Space,keypress(Space),,,,,,-- --- ---- --- ------ ----- ------- ---- -- --- ------- --<br>------- ---------- ------ -- ----- -- ----- -- ---- ------<br>--- ----- --- --- ------ -------- ----- --- ------ ----- --<br>----- ----- ---------- --- --- ------ became ---- -- ------<br>------- --- ------ ----- --- ---- ------- -- ---- --- --<br>------- ------,39342.59000001475,39341.905000037514,39316.975,39312.945000012405,39333.699,39367.055,,39,became
screen,html.Screen,2_1_40,2021-03-07T12:58:16.707Z,,,54,,,,,,6.755000019147701,response,,,,100,,,,,,,Space,keypress(Space),,,,,,-- --- ---- --- ------ ----- ------- ---- -- --- ------- --<br>------- ---------- ------ -- ----- -- ----- -- ---- ------<br>--- ----- --- --- ------ -------- ----- --- ------ ----- --<br>----- ----- ---------- --- --- ------ ------ wary -- ------<br>------- --- ------ ----- --- ---- ------- -- ---- --- --<br>------- ------,39374.57500002347,39373.81000001915,39350.382,39342.830000096,39367.055,39400.41,,40,wary
screen,html.Screen,2_1_41,2021-03-07T12:58:16.738Z,,,54,,,,,,4.799999997165287,response,,,,100,,,,,,,Space,keypress(Space),,,,,,-- --- ---- --- ------ ----- ------- ---- -- --- ------- --<br>------- ---------- ------ -- ----- -- ----- -- ---- ------<br>--- ----- --- --- ------ -------- ----- --- ------ ----- --<br>----- ----- ---------- --- --- ------ ------ ---- of ------<br>------- --- ------ ----- --- ---- ------- -- ---- --- --<br>------- ------,39405.935000046156,39405.20999999717,39383.737,39374.81500010472,39400.41,39433.761,,41,of
screen,html.Screen,2_1_42,2021-03-07T12:58:16.771Z,,,54,,,,,,4.0840000658645295,response,,,,100,,,,,,,Space,keypress(Space),,,,,,-- --- ---- --- ------ ----- ------- ---- -- --- ------- --<br>------- ---------- ------ -- ----- -- ----- -- ---- ------<br>--- ----- --- --- ------ -------- ----- --- ------ ----- --<br>----- ----- ---------- --- --- ------ ------ ---- -- French<br>------- --- ------ ----- --- ---- ------- -- ---- --- --<br>------- ------,39438.58000007458,39437.84500006586,39417.094,39406.185000087135,39433.761,39467.119,,42,French
screen,html.Screen,2_1_43,2021-03-07T12:58:16.817Z,,,54,,,,,,16.616000016168982,response,,,,100,,,,,,,Space,keypress(Space),,,,,,-- --- ---- --- ------ ----- ------- ---- -- --- ------- --<br>------- ---------- ------ -- ----- -- ----- -- ---- ------<br>--- ----- --- --- ------ -------- ----- --- ------ ----- --<br>----- ----- ---------- --- --- ------ ------ ---- -- ------<br>credit. --- ------ ----- --- ---- ------- -- ---- --- --<br>------- ------,39484.585000085644,39483.73500001617,39450.45,39438.82000003941,39467.119,39500.476,,43,credit.
screen,html.Screen,2_1_44,2021-03-07T12:58:16.848Z,,,54,,,,,,14.469000060831604,response,,,,100,,,,,,,Space,keypress(Space),,,,,,-- --- ---- --- ------ ----- ------- ---- -- --- ------- --<br>------- ---------- ------ -- ----- -- ----- -- ---- ------<br>--- ----- --- --- ------ -------- ----- --- ------ ----- --<br>----- ----- ---------- --- --- ------ ------ ---- -- ------<br>------- The ------ ----- --- ---- ------- -- ---- --- --<br>------- ------,39515.67000010982,39514.945000060834,39483.777,39484.83000008855,39500.476,39533.832,,44,The
screen,html.Screen,2_1_45,2021-03-07T12:58:16.879Z,,,54,,,,,,11.83800002134376,response,,,,100,,,,,,,Space,keypress(Space),,,,,,-- --- ---- --- ------ ----- ------- ---- -- --- ------- --<br>------- ---------- ------ -- ----- -- ----- -- ---- ------<br>--- ----- --- --- ------ -------- ----- --- ------ ----- --<br>----- ----- ---------- --- --- ------ ------ ---- -- ------<br>------- --- French ----- --- ---- ------- -- ---- --- --<br>------- ------,39546.400000108406,39545.670000021346,39517.163,39515.90500003658,39533.832,39567.145,,45,French
screen,html.Screen,2_1_46,2021-03-07T12:58:16.910Z,,,54,,,,,,9.775000021349115,response,,,,100,,,,,,,Space,keypress(Space),,,,,,-- --- ---- --- ------ ----- ------- ---- -- --- ------- --<br>------- ---------- ------ -- ----- -- ----- -- ---- ------<br>--- ----- --- --- ------ -------- ----- --- ------ ----- --<br>----- ----- ---------- --- --- ------ ------ ---- -- ------<br>------- --- ------ state --- ---- ------- -- ---- --- --<br>------- ------,39577.62500003446,39576.920000021346,39550.515,39546.63500003517,39567.145,39600.495,,46,state
screen,html.Screen,2_1_47,2021-03-07T12:58:16.940Z,,,54,,,,,,6.435000009012583,response,,,,100,,,,,,,Space,keypress(Space),,,,,,-- --- ---- --- ------ ----- ------- ---- -- --- ------- --<br>------- ---------- ------ -- ----- -- ----- -- ---- ------<br>--- ----- --- --- ------ -------- ----- --- ------ ----- --<br>----- ----- ---------- --- --- ------ ------ ---- -- ------<br>------- --- ------ ----- was ---- ------- -- ---- --- --<br>------- ------,39607.70000005141,39606.930000009015,39583.875,39577.870000037365,39600.495,39633.897,,47,was
screen,html.Screen,2_1_48,2021-03-07T12:58:16.971Z,,,54,,,,,,4.538000088068657,response,,,,100,,,,,,,Space,keypress(Space),,,,,,-- --- ---- --- ------ ----- ------- ---- -- --- ------- --<br>------- ---------- ------ -- ----- -- ----- -- ---- ------<br>--- ----- --- --- ------ -------- ----- --- ------ ----- --<br>----- ----- ---------- --- --- ------ ------ ---- -- ------<br>------- --- ------ ----- --- left ------- -- ---- --- --<br>------- ------,39639.130000025034,39638.435000088066,39617.225,39607.94000001624,39633.897,39667.252,,48,left
screen,html.Screen,2_1_49,2021-03-07T12:58:17.003Z,,,54,,,,,,2.938000091678987,response,,,,100,,,,,,,Space,keypress(Space),,,,,,-- --- ---- --- ------ ----- ------- ---- -- --- ------- --<br>------- ---------- ------ -- ----- -- ----- -- ---- ------<br>--- ----- --- --- ------ -------- ----- --- ------ ----- --<br>----- ----- ---------- --- --- ------ ------ ---- -- ------<br>------- --- ------ ----- --- ---- without -- ---- --- --<br>------- ------,39670.89000006672,39670.19000009168,39650.583,39639.38000006601,39667.252,39700.558,,49,without
screen,html.Screen,2_1_50,2021-03-07T12:58:17.036Z,,,54,,,,,,2.0970000300658285,response,,,,100,,,,,,,Space,keypress(Space),,,,,,-- --- ---- --- ------ ----- ------- ---- -- --- ------- --<br>------- ---------- ------ -- ----- -- ----- -- ---- ------<br>--- ----- --- --- ------ -------- ----- --- ------ ----- --<br>----- ----- ---------- --- --- ------ ------ ---- -- ------<br>------- --- ------ ----- --- ---- ------- an ---- --- --<br>------- ------,39703.355000005104,39702.65500003006,39683.936,39671.195000060834,39700.558,39733.962,,50,an
screen,html.Screen,2_1_51,2021-03-07T12:58:17.081Z,,,54,,,,,,13.803000094660092,response,,,,100,,,,,,,Space,keypress(Space),,,,,,-- --- ---- --- ------ ----- ------- ---- -- --- ------- --<br>------- ---------- ------ -- ----- -- ----- -- ---- ------<br>--- ----- --- --- ------ -------- ----- --- ------ ----- --<br>----- ----- ---------- --- --- ------ ------ ---- -- ------<br>------- --- ------ ----- --- ---- ------- -- easy --- --<br>------- ------,39748.45500010997,39747.76500009466,39717.29,39703.62500008196,39733.962,39767.313,,51,easy
screen,html.Screen,2_1_52,2021-03-07T12:58:17.111Z,,,54,,,,,,11.097000028086768,response,,,,100,,,,,,,Space,keypress(Space),,,,,,-- --- ---- --- ------ ----- ------- ---- -- --- ------- --<br>------- ---------- ------ -- ----- -- ----- -- ---- ------<br>--- ----- --- --- ------ -------- ----- --- ------ ----- --<br>----- ----- ---------- --- --- ------ ------ ---- -- ------<br>------- --- ------ ----- --- ---- ------- -- ---- way --<br>------- ------,39779.1000000434,39778.41000002809,39750.641,39748.695000074804,39767.313,39800.674,,52,way
screen,html.Screen,2_1_53,2021-03-07T12:58:17.142Z,,,54,,,,,,8.691000110120513,response,,,,100,,,,,,,Space,keypress(Space),,,,,,-- --- ---- --- ------ ----- ------- ---- -- --- ------- --<br>------- ---------- ------ -- ----- -- ----- -- ---- ------<br>--- ----- --- --- ------ -------- ----- --- ------ ----- --<br>----- ----- ---------- --- --- ------ ------ ---- -- ------<br>------- --- ------ ----- --- ---- ------- -- ---- --- of<br>------- ------,39810.09000004269,39809.36500011012,39783.999,39779.335000086576,39800.674,39834.025,,53,of
screen,html.Screen,2_1_54,2021-03-07T12:58:17.173Z,,,54,,,,,,5.73000008091185,response,,,,100,,,,,,,Space,keypress(Space),,,,,,-- --- ---- --- ------ ----- ------- ---- -- --- ------- --<br>------- ---------- ------ -- ----- -- ----- -- ---- ------<br>--- ----- --- --- ------ -------- ----- --- ------ ----- --<br>----- ----- ---------- --- --- ------ ------ ---- -- ------<br>------- --- ------ ----- --- ---- ------- -- ---- --- --<br>raising ------,39840.48500005156,39839.75500008091,39817.296,39810.34500000533,39834.025,39867.382,,54,raising
screen,html.Screen,2_1_55,2021-03-07T12:58:17.204Z,,,54,,,,,,4.11300008672697,response,,,,100,,,,,,,Space,keypress(Space),,,,,,-- --- ---- --- ------ ----- ------- ---- -- --- ------- --<br>------- ---------- ------ -- ----- -- ----- -- ---- ------<br>--- ----- --- --- ------ -------- ----- --- ------ ----- --<br>----- ----- ---------- --- --- ------ ------ ---- -- ------<br>------- --- ------ ----- --- ---- ------- -- ---- --- --<br>------- money.,39872.21500009764,39871.495000086725,39850.706,39840.72500001639,39867.382,39900.749,,55,money.
Item 100,flow.Loop,2_1,2021-03-07T12:58:17.208Z,,,,,,,,,10277.519000086726,completion,,,,,,,,,,,,,,,,,,,39876.09500007238,39871.495000086725,29577.296,29584.535000030883,29593.976,39900.749,,,
Question 1,html.Screen,2_2,2021-03-07T12:58:19.750Z,,,,,,true,TRUE,,2515.9360000619854,response,,,,,,,,,,,TRUE,click #choice-1,,,,,,,42417.49500005972,42416.68500006199,39884.064,39876.36500003282,39900.749,42419.026,,,
Question 2,html.Screen,2_3,2021-03-07T12:58:20.405Z,,,,,,true,FALSE,,653.3690000247007,response,,,,,,,,,,,FALSE,click #choice-2,,,,,,,43073.06000008248,43072.3950000247,42402.396,42417.65000007581,42419.026,43086.05,,,
End of Practice,html.Page,2_4,2021-03-07T12:58:22.343Z,,,,,,,,,1924.305000034903,form submission,,,,,,,,,,,,,,,,,,,45010.75000001583,45010.355000034906,43069.497,43073.205000022426,43086.05,45020.58,,,
Practice,flow.Sequence,2,2021-03-07T12:58:22.343Z,,,,,,,,,22419.313000034905,completion,,,,,,,,,,,,,,,,,,,45010.97500009928,45010.355000034906,22556.043,22573.590000043623,22591.042,45020.58,,,
Holding screen,html.Screen,3_0_0,2021-03-07T12:58:29.342Z,,,,,,,,,7004.593999999997,timeout,,,,,,,,,,,,,,,,,,,52009.35000006575,52008.616,45004.096,45011.18500006851,45020.58,52025.174,,,
screen,html.Screen,3_0_1_0,2021-03-07T12:58:31.560Z,,,2,,,,,,2201.8660000270465,response,,,,1,A,,,,,,Space,keypress(Space),,lyrical,,,,Two ---- ------ --- ------- ---------- ------- ----------<br>--- --------- --- ----------- ------- ----- ------- ---<br>--------- ---- -- --- ---- -- --------- -- ---- -------<br>-- --------- ------ --- ----- ------ ---- --- --------- --<br>------ - ---- -- --- ----------- ------- ---- ----- -----<br>--- -------- - ------ ---- -- ----- ---- --- --- -----------<br>-- -------,54228.140000021085,54227.040000027046,52008.616,52009.6800000174,52025.174,54243.471,,0,Two
screen,html.Screen,3_0_1_1,2021-03-07T12:58:31.904Z,,,2,,,,,,327.2890000314437,response,,,,1,A,,,,,,Space,keypress(Space),,lyrical,,,,--- days ------ --- ------- ---------- ------- ----------<br>--- --------- --- ----------- ------- ----- ------- ---<br>--------- ---- -- --- ---- -- --------- -- ---- -------<br>-- --------- ------ --- ----- ------ ---- --- --------- --<br>------ - ---- -- --- ----------- ------- ---- ----- -----<br>--- -------- - ------ ---- -- ----- ---- --- --- -----------<br>-- -------,54571.57000002917,54570.76000003144,54227.107,54228.50500000641,54243.471,54577.024,,1,days
screen,html.Screen,3_0_1_2,2021-03-07T12:58:32.217Z,,,2,,,,,,306.6410000885153,response,,,,1,A,,,,,,Space,keypress(Space),,lyrical,,,,"--- ---- later, --- ------- ---------- ------- ----------<br>--- --------- --- ----------- ------- ----- ------- ---<br>--------- ---- -- --- ---- -- --------- -- ---- -------<br>-- --------- ------ --- ----- ------ ---- --- --------- --<br>------ - ---- -- --- ----------- ------- ---- ----- -----<br>--- -------- - ------ ---- -- ----- ---- --- --- -----------<br>-- -------",54884.515000041574,54883.66500008851,54560.374,54571.82000007015,54577.024,54893.843,,2,"later,"
screen,html.Screen,3_0_1_3,2021-03-07T12:58:32.560Z,,,2,,,,,,332.92200002853497,response,,,,1,A,,,,,,Space,keypress(Space),,lyrical,,,,--- ---- ------ the ------- ---------- ------- ----------<br>--- --------- --- ----------- ------- ----- ------- ---<br>--------- ---- -- --- ---- -- --------- -- ---- -------<br>-- --------- ------ --- ----- ------ ---- --- --------- --<br>------ - ---- -- --- ----------- ------- ---- ----- -----<br>--- -------- - ------ ---- -- ----- ---- --- --- -----------<br>-- -------,55227.60500002187,55226.765000028536,54877.261,54884.77500004228,54893.843,55244.137,,3,the
screen,html.Screen,3_0_1_4,2021-03-07T12:58:32.928Z,,,2,,,,,,350.58300005189085,response,,,,1,A,,,,,,Space,keypress(Space),,lyrical,,,,--- ---- ------ --- British ---------- ------- ----------<br>--- --------- --- ----------- ------- ----- ------- ---<br>--------- ---- -- --- ---- -- --------- -- ---- -------<br>-- --------- ------ --- ----- ------ ---- --- --------- --<br>------ - ---- -- --- ----------- ------- ---- ----- -----<br>--- -------- - ------ ---- -- ----- ---- --- --- -----------<br>-- -------,55595.64000007231,55594.72000005189,55227.415,55227.86000010092,55244.137,55611.038,,4,British
screen,html.Screen,3_0_1_5,2021-03-07T12:58:33.311Z,,,2,,,,,,367.63700002030237,response,,,,1,A,,,,,,Space,keypress(Space),,lyrical,,,,--- ---- ------ --- ------- astronomer ------- ----------<br>--- --------- --- ----------- ------- ----- ------- ---<br>--------- ---- -- --- ---- -- --------- -- ---- -------<br>-- --------- ------ --- ----- ------ ---- --- --------- --<br>------ - ---- -- --- ----------- ------- ---- ----- -----<br>--- -------- - ------ ---- -- ----- ---- --- --- -----------<br>-- -------,55979.54500000924,55978.6750000203,55594.387,55595.900000073016,55611.038,55994.619,,5,astronomer
screen,html.Screen,3_0_1_6,2021-03-07T12:58:33.711Z,,,2,,,,,,383.96600005677465,response,,,,1,A,,,,,,Space,keypress(Space),,lyrical,,,,--- ---- ------ --- ------- ---------- Richard ----------<br>--- --------- --- ----------- ------- ----- ------- ---<br>--------- ---- -- --- ---- -- --------- -- ---- -------<br>-- --------- ------ --- ----- ------ ---- --- --------- --<br>------ - ---- -- --- ----------- ------- ---- ----- -----<br>--- -------- - ------ ---- -- ----- ---- --- --- -----------<br>-- -------,56379.44000004791,56378.58500005677,55977.972,55979.81000004802,55994.619,56394.877,,6,Richard
screen,html.Screen,3_0_1_7,2021-03-07T12:58:34.111Z,,,2,,,,,,383.61300005517114,response,,,,1,A,,,,,,Space,keypress(Space),,lyrical,,,,--- ---- ------ --- ------- ---------- ------- Carrington<br>--- --------- --- ----------- ------- ----- ------- ---<br>--------- ---- -- --- ---- -- --------- -- ---- -------<br>-- --------- ------ --- ----- ------ ---- --- --------- --<br>------ - ---- -- --- ----------- ------- ---- ----- -----<br>--- -------- - ------ ---- -- ----- ---- --- --- -----------<br>-- -------,56779.345000046305,56778.49000005517,56378.248,56379.69500001054,56394.877,56795.144,,7,Carrington
screen,html.Screen,3_0_1_8,2021-03-07T12:58:34.511Z,,,2,,,,,,383.3410000403819,response,,,,1,A,,,,,,Space,keypress(Space),,lyrical,,,,--- ---- ------ --- ------- ---------- ------- ----------<br>was --------- --- ----------- ------- ----- ------- ---<br>--------- ---- -- --- ---- -- --------- -- ---- -------<br>-- --------- ------ --- ----- ------ ---- --- --------- --<br>------ - ---- -- --- ----------- ------- ---- ----- -----<br>--- -------- - ------ ---- -- ----- ---- --- --- -----------<br>-- -------,57179.35500002932,57178.48500004038,56778.503,56779.610000085086,56795.144,57195.407,,8,was
screen,html.Screen,3_0_1_9,2021-03-07T12:58:34.847Z,,,2,,,,,,318.96800002794043,response,,,,1,A,,,,,,Space,keypress(Space),,lyrical,,,,--- ---- ------ --- ------- ---------- ------- ----------<br>--- observing --- ----------- ------- ----- ------- ---<br>--------- ---- -- --- ---- -- --------- -- ---- -------<br>-- --------- ------ --- ----- ------ ---- --- --------- --<br>------ - ---- -- --- ----------- ------- ---- ----- -----<br>--- -------- - ------ ---- -- ----- ---- --- --- -----------<br>-- -------,57515.20500006154,57514.37500002794,57178.773,57179.615000030026,57195.407,57528.914,,9,observing
screen,html.Screen,3_0_1_10,2021-03-07T12:58:35.262Z,,,2,,,,,,401.3360000922039,response,,,,1,A,,,,,,Space,keypress(Space),,lyrical,,,,--- ---- ------ --- ------- ---------- ------- ----------<br>--- --------- the ----------- ------- ----- ------- ---<br>--------- ---- -- --- ---- -- --------- -- ---- -------<br>-- --------- ------ --- ----- ------ ---- --- --------- --<br>------ - ---- -- --- ----------- ------- ---- ----- -----<br>--- -------- - ------ ---- -- ----- ---- --- --- -----------<br>-- -------,57931.055000051856,57930.2500000922,57512.304,57515.46500006225,57528.914,57945.899,,10,the
screen,html.Screen,3_0_1_11,2021-03-07T12:58:35.615Z,,,2,,,,,,336.3910000028336,response,,,,1,A,,,,,,Space,keypress(Space),,lyrical,,,,--- ---- ------ --- ------- ---------- ------- ----------<br>--- --------- --- interesting ------- ----- ------- ---<br>--------- ---- -- --- ---- -- --------- -- ---- -------<br>-- --------- ------ --- ----- ------ ---- --- --------- --<br>------ - ---- -- --- ----------- ------- ---- ----- -----<br>--- -------- - ------ ---- -- ----- ---- --- --- -----------<br>-- -------,58283.14500011038,58282.29000000283,57929.204,57931.315000052564,57945.899,58296.052,,11,interesting
screen,html.Screen,3_0_1_12,2021-03-07T12:58:36.030Z,,,2,,,,,,402.15300002242293,response,,,,1,A,,,,,,Space,keypress(Space),,lyrical,,,,--- ---- ------ --- ------- ---------- ------- ----------<br>--- --------- --- ----------- sunspot ----- ------- ---<br>--------- ---- -- --- ---- -- --------- -- ---- -------<br>-- --------- ------ --- ----- ------ ---- --- --------- --<br>------ - ---- -- --- ----------- ------- ---- ----- -----<br>--- -------- - ------ ---- -- ----- ---- --- --- -----------<br>-- -------,58699.06000001356,58698.205000022426,58279.475,58283.400000073016,58296.052,58713.061,,12,sunspot
screen,html.Screen,3_0_1_13,2021-03-07T12:58:36.454Z,,,2,,,,,,408.96900008594093,response,,,,1,A,,,,,,Space,keypress(Space),,lyrical,,,,--- ---- ------ --- ------- ---------- ------- ----------<br>--- --------- --- ----------- ------- group ------- ---<br>--------- ---- -- --- ---- -- --------- -- ---- -------<br>-- --------- ------ --- ----- ------ ---- --- --------- --<br>------ - ---- -- --- ----------- ------- ---- ----- -----<br>--- -------- - ------ ---- -- ----- ---- --- --- -----------<br>-- -------,59122.87500000093,59122.03000008594,58696.426,58699.305000016466,58713.061,59129.832,,13,group
screen,html.Screen,3_0_1_14,2021-03-07T12:58:36.926Z,,,2,,,,,,464.1630000029036,response,,,,1,A,,,,,,Space,keypress(Space),,lyrical,,,,--- ---- ------ --- ------- ---------- ------- ----------<br>--- --------- --- ----------- ------- ----- through ---<br>--------- ---- -- --- ---- -- --------- -- ---- -------<br>-- --------- ------ --- ----- ------ ---- --- --------- --<br>------ - ---- -- --- ----------- ------- ---- ----- -----<br>--- -------- - ------ ---- -- ----- ---- --- --- -----------<br>-- -------,59594.82500003651,59593.995000002906,59113.368,59123.13500000164,59129.832,59596.932,,14,through
screen,html.Screen,3_0_1_15,2021-03-07T12:58:37.350Z,,,2,,,,,,421.0530000422441,response,,,,1,A,,,,,,Space,keypress(Space),,lyrical,,,,--- ---- ------ --- ------- ---------- ------- ----------<br>--- --------- --- ----------- ------- ----- ------- his<br>--------- ---- -- --- ---- -- --------- -- ---- -------<br>-- --------- ------ --- ----- ------ ---- --- --------- --<br>------ - ---- -- --- ----------- ------- ---- ----- -----<br>--- -------- - ------ ---- -- ----- ---- --- --- -----------<br>-- -------,60018.78000004217,60017.985000042245,59580.344,59595.085000037216,59596.932,60030.524,,15,his
screen,html.Screen,3_0_1_16,2021-03-07T12:58:37.702Z,,,2,,,,,,339.436000040012,response,,,,1,A,,,,,,Space,keypress(Space),,lyrical,,,,--- ---- ------ --- ------- ---------- ------- ----------<br>--- --------- --- ----------- ------- ----- ------- ---<br>telescope ---- -- --- ---- -- --------- -- ---- -------<br>-- --------- ------ --- ----- ------ ---- --- --------- --<br>------ - ---- -- --- ----------- ------- ---- ----- -----<br>--- -------- - ------ ---- -- ----- ---- --- --- -----------<br>-- -------,60370.830000028946,60369.96000004001,60013.971,60019.04000004288,60030.524,60380.783,,16,telescope
screen,html.Screen,3_0_1_17,2021-03-07T12:58:38.134Z,,,2,,,,,,421.05200004931976,response,,,,1,A,,,,,,Space,keypress(Space),,lyrical,,,,--- ---- ------ --- ------- ---------- ------- ----------<br>--- --------- --- ----------- ------- ----- ------- ---<br>--------- when -- --- ---- -- --------- -- ---- -------<br>-- --------- ------ --- ----- ------ ---- --- --------- --<br>------ - ---- -- --- ----------- ------- ---- ----- -----<br>--- -------- - ------ ---- -- ----- ---- --- --- -----------<br>-- -------,60802.665000082925,60801.83500004932,60364.17,60371.085000107996,60380.783,60814.402,,17,when
screen,html.Screen,3_0_1_18,2021-03-07T12:58:38.550Z,,,2,,,,,,403.44300009380095,response,,,,1,A,,,,,,Space,keypress(Space),,lyrical,,,,--- ---- ------ --- ------- ---------- ------- ----------<br>--- --------- --- ----------- ------- ----- ------- ---<br>--------- ---- he --- ---- -- --------- -- ---- -------<br>-- --------- ------ --- ----- ------ ---- --- --------- --<br>------ - ---- -- --- ----------- ------- ---- ----- -----<br>--- -------- - ------ ---- -- ----- ---- --- --- -----------<br>-- -------,61218.710000044666,61217.8450000938,60797.806,60802.92500008363,60814.402,61231.337,,18,he
screen,html.Screen,3_0_1_19,2021-03-07T12:58:38.942Z,,,2,,,,,,378.3580001083319,response,,,,1,A,,,,,,Space,keypress(Space),,lyrical,,,,--- ---- ------ --- ------- ---------- ------- ----------<br>--- --------- --- ----------- ------- ----- ------- ---<br>--------- ---- -- saw ---- -- --------- -- ---- -------<br>-- --------- ------ --- ----- ------ ---- --- --------- --<br>------ - ---- -- --- ----------- ------- ---- ----- -----<br>--- -------- - ------ ---- -- ----- ---- --- --- -----------<br>-- -------,61610.51500006579,61609.69500010833,61214.74,61218.9650000073,61231.337,61614.955,,19,saw
screen,html.Screen,3_0_1_20,2021-03-07T12:58:39.358Z,,,2,,,,,,410.71000008106057,response,,,,1,A,,,,,,Space,keypress(Space),,lyrical,,,,--- ---- ------ --- ------- ---------- ------- ----------<br>--- --------- --- ----------- ------- ----- ------- ---<br>--------- ---- -- --- what -- --------- -- ---- -------<br>-- --------- ------ --- ----- ------ ---- --- --------- --<br>------ - ---- -- --- ----------- ------- ---- ----- -----<br>--- -------- - ------ ---- -- ----- ---- --- --- -----------<br>-- -------,62026.47000004072,62025.66500008106,61598.366,61610.770000028424,61614.955,62031.905,,20,what
screen,html.Screen,3_0_1_21,2021-03-07T12:58:39.782Z,,,2,,,,,,417.815000033268,response,,,,1,A,,,,,,Space,keypress(Space),,lyrical,,,,--- ---- ------ --- ------- ---------- ------- ----------<br>--- --------- --- ----------- ------- ----- ------- ---<br>--------- ---- -- --- ---- he --------- -- ---- -------<br>-- --------- ------ --- ----- ------ ---- --- --------- --<br>------ - ---- -- --- ----------- ------- ---- ----- -----<br>--- -------- - ------ ---- -- ----- ---- --- --- -----------<br>-- -------,62450.54000010714,62449.72000003327,62015.282,62026.740000001155,62031.905,62465.54,,21,he
screen,html.Screen,3_0_1_22,2021-03-07T12:58:40.158Z,,,2,,,,,,359.9600000353894,response,,,,1,A,,,,,,Space,keypress(Space),,lyrical,,,,--- ---- ------ --- ------- ---------- ------- ----------<br>--- --------- --- ----------- ------- ----- ------- ---<br>--------- ---- -- --- ---- -- described -- ---- -------<br>-- --------- ------ --- ----- ------ ---- --- --------- --<br>------ - ---- -- --- ----------- ------- ---- ----- -----<br>--- -------- - ------ ---- -- ----- ---- --- --- -----------<br>-- -------,62826.51000004262,62825.50000003539,62448.899,62450.80000010785,62465.54,62832.393,,22,described
screen,html.Screen,3_0_1_23,2021-03-07T12:58:40.574Z,,,2,,,,,,409.15199999713514,response,,,,1,A,,,,,,Space,keypress(Space),,lyrical,,,,--- ---- ------ --- ------- ---------- ------- ----------<br>--- --------- --- ----------- ------- ----- ------- ---<br>--------- ---- -- --- ---- -- --------- as ---- -------<br>-- --------- ------ --- ----- ------ ---- --- --------- --<br>------ - ---- -- --- ----------- ------- ---- ----- -----<br>--- -------- - ------ ---- -- ----- ---- --- --- -----------<br>-- -------,63242.365000071004,63241.54499999713,62815.787,62826.75500004552,62832.393,63249.209,,23,as
screen,html.Screen,3_0_1_24,2021-03-07T12:58:40.974Z,,,2,,,,,,392.251000071672,response,,,,1,A,,,,,,Space,keypress(Space),,lyrical,,,,"--- ---- ------ --- ------- ---------- ------- ----------<br>--- --------- --- ----------- ------- ----- ------- ---<br>--------- ---- -- --- ---- -- --------- -- ""two -------<br>-- --------- ------ --- ----- ------ ---- --- --------- --<br>------ - ---- -- --- ----------- ------- ---- ----- -----<br>--- -------- - ------ ---- -- ----- ---- --- --- -----------<br>-- -------",63642.26500003133,63641.460000071675,63232.749,63242.61000007391,63249.209,63649.454,,24,"""two"
screen,html.Screen,3_0_1_25,2021-03-07T12:58:41.414Z,,,2,,,,,,431.9010000311828,response,,,,1,A,,,,,,Space,keypress(Space),,lyrical,,,,--- ---- ------ --- ------- ---------- ------- ----------<br>--- --------- --- ----------- ------- ----- ------- ---<br>--------- ---- -- --- ---- -- --------- -- ---- patches<br>-- --------- ------ --- ----- ------ ---- --- --------- --<br>------ - ---- -- --- ----------- ------- ---- ----- -----<br>--- -------- - ------ ---- -- ----- ---- --- --- -----------<br>-- -------,64082.1050000377,64081.35500003118,63633.007,63642.50499999616,63649.454,64099.934,,25,patches
screen,html.Screen,3_0_1_26,2021-03-07T12:58:41.838Z,,,2,,,,,,405.401000110789,response,,,,1,A,,,,,,Space,keypress(Space),,lyrical,,,,--- ---- ------ --- ------- ---------- ------- ----------<br>--- --------- --- ----------- ------- ----- ------- ---<br>--------- ---- -- --- ---- -- --------- -- ---- -------<br>of --------- ------ --- ----- ------ ---- --- --------- --<br>------ - ---- -- --- ----------- ------- ---- ----- -----<br>--- -------- - ------ ---- -- ----- ---- --- --- -----------<br>-- -------,64506.16000010632,64505.33500011079,64083.297,64083.53000006173,64099.934,64516.874,,26,of
screen,html.Screen,3_0_1_27,2021-03-07T12:58:42.246Z,,,2,,,,,,397.20100009517773,response,,,,1,A,,,,,,Space,keypress(Space),,lyrical,,,,--- ---- ------ --- ------- ---------- ------- ----------<br>--- --------- --- ----------- ------- ----- ------- ---<br>--------- ---- -- --- ---- -- --------- -- ---- -------<br>-- intensely ------ --- ----- ------ ---- --- --------- --<br>------ - ---- -- --- ----------- ------- ---- ----- -----<br>--- -------- - ------ ---- -- ----- ---- --- --- -----------<br>-- -------,64914.930000086315,64914.07500009518,64500.186,64506.41000003088,64516.874,64917.061,,27,intensely
screen,html.Screen,3_0_1_28,2021-03-07T12:58:42.677Z,,,2,,,,,,427.97400000573543,response,,,,1,A,,,,,,Space,keypress(Space),,lyrical,,,,--- ---- ------ --- ------- ---------- ------- ----------<br>--- --------- --- ----------- ------- ----- ------- ---<br>--------- ---- -- --- ---- -- --------- -- ---- -------<br>-- --------- bright --- ----- ------ ---- --- --------- --<br>------ - ---- -- --- ----------- ------- ---- ----- -----<br>--- -------- - ------ ---- -- ----- ---- --- --- -----------<br>-- -------,65345.88500007521,65345.03500000574,64900.502,64915.17500008922,64917.061,65350.739,,28,bright
screen,html.Screen,3_0_1_29,2021-03-07T12:58:43.077Z,,,2,,,,,,394.25600007368485,response,,,,1,A,,,,,,Space,keypress(Space),,lyrical,,,,--- ---- ------ --- ------- ---------- ------- ----------<br>--- --------- --- ----------- ------- ----- ------- ---<br>--------- ---- -- --- ---- -- --------- -- ---- -------<br>-- --------- ------ and ----- ------ ---- --- --------- --<br>------ - ---- -- --- ----------- ------- ---- ----- -----<br>--- -------- - ------ ---- -- ----- ---- --- --- -----------<br>-- -------,65745.85500010289,65744.99500007369,65334.125,65346.120000001974,65350.739,65751.014,,29,and
screen,html.Screen,3_0_1_30,2021-03-07T12:58:43.485Z,,,2,,,,,,402.13100010572816,response,,,,1,A,,,,,,Space,keypress(Space),,lyrical,,,,--- ---- ------ --- ------- ---------- ------- ----------<br>--- --------- --- ----------- ------- ----- ------- ---<br>--------- ---- -- --- ---- -- --------- -- ---- -------<br>-- --------- ------ --- white ------ ---- --- --------- --<br>------ - ---- -- --- ----------- ------- ---- ----- -----<br>--- -------- - ------ ---- -- ----- ---- --- --- -----------<br>-- -------,66153.61500007566,66153.14500010572,65734.387,65746.09500006773,65751.014,66167.946,,30,white
screen,html.Screen,3_0_1_31,2021-03-07T12:58:43.957Z,,,2,,,,,,456.919000019785,response,,,,1,A,,,,,,Space,keypress(Space),,lyrical,,,,"--- ---- ------ --- ------- ---------- ------- ----------<br>--- --------- --- ----------- ------- ----- ------- ---<br>--------- ---- -- --- ---- -- --------- -- ---- -------<br>-- --------- ------ --- ----- light"" ---- --- --------- --<br>------ - ---- -- --- ----------- ------- ---- ----- -----<br>--- -------- - ------ ---- -- ----- ---- --- --- -----------<br>-- -------",66625.71000005119,66624.86500001978,66151.315,66153.72500009835,66167.946,66634.847,,31,"light"""
screen,html.Screen,3_0_1_32,2021-03-07T12:58:44.429Z,,,2,,,,,,462.07800007805054,response,,,,1,A,,,,,,Space,keypress(Space),,lyrical,,,,--- ---- ------ --- ------- ---------- ------- ----------<br>--- --------- --- ----------- ------- ----- ------- ---<br>--------- ---- -- --- ---- -- --------- -- ---- -------<br>-- --------- ------ --- ----- ------ over --- --------- --<br>------ - ---- -- --- ----------- ------- ---- ----- -----<br>--- -------- - ------ ---- -- ----- ---- --- --- -----------<br>-- -------,67097.63500001281,67096.92500007804,66618.284,66625.94500009436,66634.847,67101.887,,32,over
screen,html.Screen,3_0_1_33,2021-03-07T12:58:44.901Z,,,2,,,,,,466.9480000418698,response,,,,1,A,,,,,,Space,keypress(Space),,lyrical,,,,--- ---- ------ --- ------- ---------- ------- ----------<br>--- --------- --- ----------- ------- ----- ------- ---<br>--------- ---- -- --- ---- -- --------- -- ---- -------<br>-- --------- ------ --- ----- ------ ---- the --------- --<br>------ - ---- -- --- ----------- ------- ---- ----- -----<br>--- -------- - ------ ---- -- ----- ---- --- --- -----------<br>-- -------,67569.70000010915,67568.83500004187,67085.228,67097.87000005599,67101.887,67585.546,,33,the
screen,html.Screen,3_0_1_34,2021-03-07T12:58:45.261Z,,,2,,,,,,343.1090000542754,response,,,,1,A,,,,,,Space,keypress(Space),,lyrical,,,,--- ---- ------ --- ------- ---------- ------- ----------<br>--- --------- --- ----------- ------- ----- ------- ---<br>--------- ---- -- --- ---- -- --------- -- ---- -------<br>-- --------- ------ --- ----- ------ ---- --- sunspots. --<br>------ - ---- -- --- ----------- ------- ---- ----- -----<br>--- -------- - ------ ---- -- ----- ---- --- --- -----------<br>-- -------,67929.54000004102,67928.65500005428,67568.925,67569.94499999564,67585.546,67935.76,,34,sunspots.
screen,html.Screen,3_0_1_35,2021-03-07T12:58:45.653Z,,,2,,,,,,384.96499999777006,response,,,,1,A,,,,,,Space,keypress(Space),,lyrical,,,,--- ---- ------ --- ------- ---------- ------- ----------<br>--- --------- --- ----------- ------- ----- ------- ---<br>--------- ---- -- --- ---- -- --------- -- ---- -------<br>-- --------- ------ --- ----- ------ ---- --- --------- He<br>------ - ---- -- --- ----------- ------- ---- ----- -----<br>--- -------- - ------ ---- -- ----- ---- --- --- -----------<br>-- -------,68321.62000006065,68320.72499999776,67919.126,67929.79500000365,67935.76,68336.043,,35,He
screen,html.Screen,3_0_1_36,2021-03-07T12:58:46.077Z,,,2,,,,,,408.5420000949525,response,,,,1,A,,,,,,Space,keypress(Space),,lyrical,,,,--- ---- ------ --- ------- ---------- ------- ----------<br>--- --------- --- ----------- ------- ----- ------- ---<br>--------- ---- -- --- ---- -- --------- -- ---- -------<br>-- --------- ------ --- ----- ------ ---- --- --------- --<br>jotted - ---- -- --- ----------- ------- ---- ----- -----<br>--- -------- - ------ ---- -- ----- ---- --- --- -----------<br>-- -------,68745.38500001654,68744.58500009496,68319.409,68321.86500006355,68336.043,68752.801,,36,jotted
screen,html.Screen,3_0_1_37,2021-03-07T12:58:46.517Z,,,2,,,,,,431.97900001049857,response,,,,1,A,,,,,,Space,keypress(Space),,lyrical,,,,--- ---- ------ --- ------- ---------- ------- ----------<br>--- --------- --- ----------- ------- ----- ------- ---<br>--------- ---- -- --- ---- -- --------- -- ---- -------<br>-- --------- ------ --- ----- ------ ---- --- --------- --<br>------ a ---- -- --- ----------- ------- ---- ----- -----<br>--- -------- - ------ ---- -- ----- ---- --- --- -----------<br>-- -------,69185.5800000485,69184.7800000105,68736.34,68745.62500009779,68752.801,69203.271,,37,a
screen,html.Screen,3_0_1_38,2021-03-07T12:58:46.941Z,,,2,,,,,,405.21900001326867,response,,,,1,A,,,,,,Space,keypress(Space),,lyrical,,,,--- ---- ------ --- ------- ---------- ------- ----------<br>--- --------- --- ----------- ------- ----- ------- ---<br>--------- ---- -- --- ---- -- --------- -- ---- -------<br>-- --------- ------ --- ----- ------ ---- --- --------- --<br>------ - note -- --- ----------- ------- ---- ----- -----<br>--- -------- - ------ ---- -- ----- ---- --- --- -----------<br>-- -------,69609.30500004906,69608.49000001326,69169.966,69185.82000001334,69203.271,69620.161,,38,note
screen,html.Screen,3_0_1_39,2021-03-07T12:58:47.293Z,,,2,,,,,,340.2740000154299,response,,,,1,A,,,,,,Space,keypress(Space),,lyrical,,,,--- ---- ------ --- ------- ---------- ------- ----------<br>--- --------- --- ----------- ------- ----- ------- ---<br>--------- ---- -- --- ---- -- --------- -- ---- -------<br>-- --------- ------ --- ----- ------ ---- --- --------- --<br>------ - ---- in --- ----------- ------- ---- ----- -----<br>--- -------- - ------ ---- -- ----- ---- --- --- -----------<br>-- -------,69961.21000009589,69960.43500001542,69603.58,69609.55000005197,69620.161,69970.4,,39,in
screen,html.Screen,3_0_1_40,2021-03-07T12:58:47.677Z,,,2,,,,,,373.97000006437884,response,,,,1,A,,,,,,Space,keypress(Space),,lyrical,,,,--- ---- ------ --- ------- ---------- ------- ----------<br>--- --------- --- ----------- ------- ----- ------- ---<br>--------- ---- -- --- ---- -- --------- -- ---- -------<br>-- --------- ------ --- ----- ------ ---- --- --------- --<br>------ - ---- -- his ----------- ------- ---- ----- -----<br>--- -------- - ------ ---- -- ----- ---- --- --- -----------<br>-- -------,70345.20500001963,70344.37000006437,69953.792,69961.46500005852,69970.4,70353.923,,40,his
screen,html.Screen,3_0_1_41,2021-03-07T12:58:48.100Z,,,2,,,,,,414.3070000451553,response,,,,1,A,,,,,,Space,keypress(Space),,lyrical,,,,--- ---- ------ --- ------- ---------- ------- ----------<br>--- --------- --- ----------- ------- ----- ------- ---<br>--------- ---- -- --- ---- -- --------- -- ---- -------<br>-- --------- ------ --- ----- ------ ---- --- --------- --<br>------ - ---- -- --- painstaking ------- ---- ----- -----<br>--- -------- - ------ ---- -- ----- ---- --- --- -----------<br>-- -------,70769.0350000048,70768.23000004515,70337.382,70345.45000002254,70353.923,70770.927,,41,painstaking
screen,html.Screen,3_0_1_42,2021-03-07T12:58:48.533Z,,,2,,,,,,429.3280000324885,response,,,,1,A,,,,,,Space,keypress(Space),,lyrical,,,,--- ---- ------ --- ------- ---------- ------- ----------<br>--- --------- --- ----------- ------- ----- ------- ---<br>--------- ---- -- --- ---- -- --------- -- ---- -------<br>-- --------- ------ --- ----- ------ ---- --- --------- --<br>------ - ---- -- --- ----------- record. ---- ----- -----<br>--- -------- - ------ ---- -- ----- ---- --- --- -----------<br>-- -------,71201.1300000595,71200.25500003248,70754.324,70769.27500008605,70770.927,71204.609,,42,record.
screen,html.Screen,3_0_1_43,2021-03-07T12:58:48.892Z,,,2,,,,,,355.53599999583093,response,,,,1,A,,,,,,Space,keypress(Space),,lyrical,,,,--- ---- ------ --- ------- ---------- ------- ----------<br>--- --------- --- ----------- ------- ----- ------- ---<br>--------- ---- -- --- ---- -- --------- -- ---- -------<br>-- --------- ------ --- ----- ------ ---- --- --------- --<br>------ - ---- -- --- ----------- ------- That ----- -----<br>--- -------- - ------ ---- -- ----- ---- --- --- -----------<br>-- -------,71560.9500000719,71560.14499999583,71187.962,71201.3750000624,71204.609,71571.385,,43,That
screen,html.Screen,3_0_1_44,2021-03-07T12:58:49.348Z,,,2,,,,,,444.7150000080146,response,,,,1,A,,,,,,Space,keypress(Space),,lyrical,,,,--- ---- ------ --- ------- ---------- ------- ----------<br>--- --------- --- ----------- ------- ----- ------- ---<br>--------- ---- -- --- ---- -- --------- -- ---- -------<br>-- --------- ------ --- ----- ------ ---- --- --------- --<br>------ - ---- -- --- ----------- ------- ---- night -----<br>--- -------- - ------ ---- -- ----- ---- --- --- -----------<br>-- -------,72016.92500000354,72016.10000000801,71554.859,71561.1950000748,71571.385,72021.813,,44,night
screen,html.Screen,3_0_1_45,2021-03-07T12:58:49.756Z,,,2,,,,,,402.19700007521897,response,,,,1,A,,,,,,Space,keypress(Space),,lyrical,,,,--- ---- ------ --- ------- ---------- ------- ----------<br>--- --------- --- ----------- ------- ----- ------- ---<br>--------- ---- -- --- ---- -- --------- -- ---- -------<br>-- --------- ------ --- ----- ------ ---- --- --------- --<br>------ - ---- -- --- ----------- ------- ---- ----- there<br>--- -------- - ------ ---- -- ----- ---- --- --- -----------<br>-- -------,72424.83500007074,72424.01000007521,72005.149,72017.16500008479,72021.813,72438.724,,45,there
screen,html.Screen,3_0_1_46,2021-03-07T12:58:50.220Z,,,2,,,,,,449.2110000061075,response,,,,1,A,,,,,,Space,keypress(Space),,lyrical,,,,--- ---- ------ --- ------- ---------- ------- ----------<br>--- --------- --- ----------- ------- ----- ------- ---<br>--------- ---- -- --- ---- -- --------- -- ---- -------<br>-- --------- ------ --- ----- ------ ---- --- --------- --<br>------ - ---- -- --- ----------- ------- ---- ----- -----<br>was -------- - ------ ---- -- ----- ---- --- --- -----------<br>-- -------,72888.78000003751,72887.93500000611,72422.101,72425.0849999953,72438.724,72905.688,,46,was
screen,html.Screen,3_0_1_47,2021-03-07T12:58:50.668Z,,,2,,,,,,430.19700006590574,response,,,,1,A,,,,,,Space,keypress(Space),,lyrical,,,,--- ---- ------ --- ------- ---------- ------- ----------<br>--- --------- --- ----------- ------- ----- ------- ---<br>--------- ---- -- --- ---- -- --------- -- ---- -------<br>-- --------- ------ --- ----- ------ ---- --- --------- --<br>------ - ---- -- --- ----------- ------- ---- ----- -----<br>--- scarcely - ------ ---- -- ----- ---- --- --- -----------<br>-- -------,73336.74000005703,73335.8850000659,72889.068,72889.01000004262,72905.688,73339.304,,47,scarcely
screen,html.Screen,3_0_1_48,2021-03-07T12:58:51.118Z,,,2,,,,,,444.4160000649281,response,,,,1,A,,,,,,Space,keypress(Space),,lyrical,,,,--- ---- ------ --- ------- ---------- ------- ----------<br>--- --------- --- ----------- ------- ----- ------- ---<br>--------- ---- -- --- ---- -- --------- -- ---- -------<br>-- --------- ------ --- ----- ------ ---- --- --------- --<br>------ - ---- -- --- ----------- ------- ---- ----- -----<br>--- -------- a ------ ---- -- ----- ---- --- --- -----------<br>-- -------,73786.54500003904,73783.72000006493,73322.683,73336.98000002187,73339.304,73789.598,,48,a
screen,html.Screen,3_0_1_49,2021-03-07T12:58:51.612Z,,,2,,,,,,490.07699999795295,response,,,,1,A,,,,,,Space,keypress(Space),,lyrical,,,,--- ---- ------ --- ------- ---------- ------- ----------<br>--- --------- --- ----------- ------- ----- ------- ---<br>--------- ---- -- --- ---- -- --------- -- ---- -------<br>-- --------- ------ --- ----- ------ ---- --- --------- --<br>------ - ---- -- --- ----------- ------- ---- ----- -----<br>--- -------- - square ---- -- ----- ---- --- --- -----------<br>-- -------,74280.52500006743,74279.67499999795,73772.975,73786.79500008002,73789.598,74289.874,,49,square
screen,html.Screen,3_0_1_50,2021-03-07T12:58:52.012Z,,,2,,,,,,389.826000095185,response,,,,1,A,,,,,,Space,keypress(Space),,lyrical,,,,--- ---- ------ --- ------- ---------- ------- ----------<br>--- --------- --- ----------- ------- ----- ------- ---<br>--------- ---- -- --- ---- -- --------- -- ---- -------<br>-- --------- ------ --- ----- ------ ---- --- --------- --<br>------ - ---- -- --- ----------- ------- ---- ----- -----<br>--- -------- - ------ inch -- ----- ---- --- --- -----------<br>-- -------,74680.52500009071,74679.70000009518,74273.321,74280.75000003446,74289.874,74690.127,,50,inch
screen,html.Screen,3_0_1_51,2021-03-07T12:58:52.389Z,,,2,,,,,,366.4880000086123,response,,,,1,A,,,,,,Space,keypress(Space),,lyrical,,,,--- ---- ------ --- ------- ---------- ------- ----------<br>--- --------- --- ----------- ------- ----- ------- ---<br>--------- ---- -- --- ---- -- --------- -- ---- -------<br>-- --------- ------ --- ----- ------ ---- --- --------- --<br>------ - ---- -- --- ----------- ------- ---- ----- -----<br>--- -------- - ------ ---- of ----- ---- --- --- -----------<br>-- -------,75057.43500008248,75056.6150000086,74673.558,74680.75500009581,74690.127,75073.785,,51,of
screen,html.Screen,3_0_1_52,2021-03-07T12:58:52.852Z,,,2,,,,,,445.82999999742606,response,,,,1,A,,,,,,Space,keypress(Space),,lyrical,,,,--- ---- ------ --- ------- ---------- ------- ----------<br>--- --------- --- ----------- ------- ----- ------- ---<br>--------- ---- -- --- ---- -- --------- -- ---- -------<br>-- --------- ------ --- ----- ------ ---- --- --------- --<br>------ - ---- -- --- ----------- ------- ---- ----- -----<br>--- -------- - ------ ---- -- earth ---- --- --- -----------<br>-- -------,75520.4200000735,75519.61499999743,75057.139,75057.68000008538,75073.785,75524.072,,52,earth
screen,html.Screen,3_0_1_53,2021-03-07T12:58:53.324Z,,,2,,,,,,467.42300008206803,response,,,,1,A,,,,,,Space,keypress(Space),,lyrical,,,,--- ---- ------ --- ------- ---------- ------- ----------<br>--- --------- --- ----------- ------- ----- ------- ---<br>--------- ---- -- --- ---- -- --------- -- ---- -------<br>-- --------- ------ --- ----- ------ ---- --- --------- --<br>------ - ---- -- --- ----------- ------- ---- ----- -----<br>--- -------- - ------ ---- -- ----- that --- --- -----------<br>-- -------,75992.3800000688,75991.49500008207,75507.445,75520.65500000026,75524.072,76007.728,,53,that
screen,html.Screen,3_0_1_54,2021-03-07T12:58:53.748Z,,,2,,,,,,407.75200008333195,response,,,,1,A,,,,,,Space,keypress(Space),,lyrical,,,,--- ---- ------ --- ------- ---------- ------- ----------<br>--- --------- --- ----------- ------- ----- ------- ---<br>--------- ---- -- --- ---- -- --------- -- ---- -------<br>-- --------- ------ --- ----- ------ ---- --- --------- --<br>------ - ---- -- --- ----------- ------- ---- ----- -----<br>--- -------- - ------ ---- -- ----- ---- was --- -----------<br>-- -------,76416.33500007447,76415.48000008333,75991.123,75992.61499999557,76007.728,76424.603,,54,was
screen,html.Screen,3_0_1_55,2021-03-07T12:58:54.156Z,,,2,,,,,,398.732000080985,response,,,,1,A,,,,,,Space,keypress(Space),,lyrical,,,,--- ---- ------ --- ------- ---------- ------- ----------<br>--- --------- --- ----------- ------- ----- ------- ---<br>--------- ---- -- --- ---- -- --------- -- ---- -------<br>-- --------- ------ --- ----- ------ ---- --- --------- --<br>------ - ---- -- --- ----------- ------- ---- ----- -----<br>--- -------- - ------ ---- -- ----- ---- --- not -----------<br>-- -------,76824.17000003625,76823.33500008099,76408.039,76416.5750000393,76424.603,76858.279,,55,not
screen,html.Screen,3_0_1_56,2021-03-07T12:58:54.652Z,,,2,,,,,,461.0710000052204,response,,,,1,A,,,,,,Space,keypress(Space),,lyrical,,,,--- ---- ------ --- ------- ---------- ------- ----------<br>--- --------- --- ----------- ------- ----- ------- ---<br>--------- ---- -- --- ---- -- --------- -- ---- -------<br>-- --------- ------ --- ----- ------ ---- --- --------- --<br>------ - ---- -- --- ----------- ------- ---- ----- -----<br>--- -------- - ------ ---- -- ----- ---- --- --- illuminated<br>-- -------,77320.18999999855,77319.35000000522,76841.598,76824.40500007942,76858.279,77325.262,,56,illuminated
screen,html.Screen,3_0_1_57,2021-03-07T12:58:55.099Z,,,2,,,,,,441.9130000445148,response,,,,1,A,,,,,,Space,keypress(Space),,lyrical,,,,--- ---- ------ --- ------- ---------- ------- ----------<br>--- --------- --- ----------- ------- ----- ------- ---<br>--------- ---- -- --- ---- -- --------- -- ---- -------<br>-- --------- ------ --- ----- ------ ---- --- --------- --<br>------ - ---- -- --- ----------- ------- ---- ----- -----<br>--- -------- - ------ ---- -- ----- ---- --- --- -----------<br>by -------,77768.08000006713,77767.17500004452,77308.623,77320.4300000798,77325.262,77775.49,,57,by
screen,html.Screen,3_0_1_58,2021-03-07T12:58:55.508Z,,,2,,,,,,399.745000089737,response,,,,1,A,,,,,,Space,keypress(Space),,lyrical,,,,--- ---- ------ --- ------- ---------- ------- ----------<br>--- --------- --- ----------- ------- ----- ------- ---<br>--------- ---- -- --- ---- -- --------- -- ---- -------<br>-- --------- ------ --- ----- ------ ---- --- --------- --<br>------ - ---- -- --- ----------- ------- ---- ----- -----<br>--- -------- - ------ ---- -- ----- ---- --- --- -----------<br>-- aurora.,78176.13999999594,78175.23500008974,77758.932,77768.32000003196,77775.49,78192.552,,58,aurora.
Item 1,flow.Loop,3_0_1,2021-03-07T12:58:55.508Z,,,,,,,,,26150.061000089743,completion,,,,,,,,,,,,,,,,,,,78176.52000009548,78175.23500008974,52008.616,52009.590000030585,52025.174,78192.552,,,
Question 1,html.Screen,3_0_2,2021-03-07T12:58:59.007Z,,,,,,true,TRUE,,3481.9680000004882,response,,,,1,A,,,,,,TRUE,click #choice-1,,lyrical,,,,,81675.270000007,81674.52000000048,78175.872,78176.72000010498,78192.552,81678.062,,,
Question 2,html.Screen,3_0_3,2021-03-07T12:59:01.094Z,,,,,,true,FALSE,,2084.0330000127724,response,,,,1,A,,,,,,FALSE,click #choice-2,,lyrical,,,,,83762.87000009324,83762.09500001278,81661.391,81675.4100000253,81678.062,83784.499,,,
Item 1,flow.Sequence,3_0,2021-03-07T12:59:01.094Z,,,,,,,,,38741.515000012776,completion,,,,,,,,,,,,,,,,,,,83763.08500010055,83762.09500001278,45004.096,45011.1400000751,45020.58,83784.499,,,
Holding screen,html.Screen,3_1_0,2021-03-07T12:59:08.100Z,,,,,,,,,6999.40800000001,timeout,,,,,,,,,,,,,,,,,,,90768.7750000041,90767.392,83746.135,83763.20000004489,83784.499,90783.907,,,
screen,html.Screen,3_1_1_0,2021-03-07T12:59:08.754Z,,,3,,,,,,638.1330000922317,response,,,,2,A,,,,,,Space,keypress(Space),,lyrical,,,,I ----- ---- ------------ ------ ------- --- ------ ----<br>--- ---- -- - --------- -------- --- --------- --- ----<br>----- --------- --- ----- ----- --------- --- ---- --- ----<br>----- ---- --- --- --- ---- -- -------- ---- - --------- --<br>----- -- ----------- ----- ---- ---- ---- ----- -------- --<br>---------- ---- ----- ----- ---- ------- -----------,91422.95000003651,91422.04000009224,90767.392,90769.06500000041,90783.907,91434.442,,0,I
screen,html.Screen,3_1_1_1,2021-03-07T12:59:09.113Z,,,3,,,,,,346.5430000776396,response,,,,2,A,,,,,,Space,keypress(Space),,lyrical,,,,- agree ---- ------------ ------ ------- --- ------ ----<br>--- ---- -- - --------- -------- --- --------- --- ----<br>----- --------- --- ----- ----- --------- --- ---- --- ----<br>----- ---- --- --- --- ---- -- -------- ---- - --------- --<br>----- -- ----------- ----- ---- ---- ---- ----- -------- --<br>---------- ---- ----- ----- ---- ------- -----------,91781.77500003949,91780.98500007764,91417.92,91423.18500007968,91434.442,91784.732,,1,agree
screen,html.Screen,3_1_1_2,2021-03-07T12:59:09.497Z,,,3,,,,,,380.2430000797176,response,,,,2,A,,,,,,Space,keypress(Space),,lyrical,,,,- ----- that ------------ ------ ------- --- ------ ----<br>--- ---- -- - --------- -------- --- --------- --- ----<br>----- --------- --- ----- ----- --------- --- ---- --- ----<br>----- ---- --- --- --- ---- -- -------- ---- - --------- --<br>----- -- ----------- ----- ---- ---- ---- ----- -------- --<br>---------- ---- ----- ----- ---- ------- -----------,92165.81500007305,92164.97500007972,91768.083,91782.00000000652,91784.732,92168.312,,2,that
screen,html.Screen,3_1_1_3,2021-03-07T12:59:09.913Z,,,3,,,,,,412.58300002096803,response,,,,2,A,,,,,,Space,keypress(Space),,lyrical,,,,- ----- ---- California's ------ ------- --- ------ ----<br>--- ---- -- - --------- -------- --- --------- --- ----<br>----- --------- --- ----- ----- --------- --- ---- --- ----<br>----- ---- --- --- --- ---- -- -------- ---- - --------- --<br>----- -- ----------- ----- ---- ---- ---- ----- -------- --<br>---------- ---- ----- ----- ---- ------- -----------,92581.74500009045,92580.89500002097,92151.678,92166.05500003789,92168.312,92585.252,,3,California's
screen,html.Screen,3_1_1_4,2021-03-07T12:59:10.289Z,,,3,,,,,,371.618000110946,response,,,,2,A,,,,,,Space,keypress(Space),,lyrical,,,,"- ----- ---- ------------ ""three ------- --- ------ ----<br>--- ---- -- - --------- -------- --- --------- --- ----<br>----- --------- --- ----- ----- --------- --- ---- --- ----<br>----- ---- --- --- --- ---- -- -------- ---- - --------- --<br>----- -- ----------- ----- ---- ---- ---- ----- -------- --<br>---------- ---- ----- ----- ---- ------- -----------",92957.73000002373,92956.87000011094,92568.632,92581.98500005528,92585.252,92968.783,,4,"""three"
screen,html.Screen,3_1_1_5,2021-03-07T12:59:10.713Z,,,3,,,,,,411.9020000983146,response,,,,2,A,,,,,,Space,keypress(Space),,lyrical,,,,- ----- ---- ------------ ------ strikes --- ------ ----<br>--- ---- -- - --------- -------- --- --------- --- ----<br>----- --------- --- ----- ----- --------- --- ---- --- ----<br>----- ---- --- --- --- ---- -- -------- ---- - --------- --<br>----- -- ----------- ----- ---- ---- ---- ----- -------- --<br>---------- ---- ----- ----- ---- ------- -----------,93381.3749999972,93380.68500009831,92952.21,92957.97000010498,92968.783,93385.72,,5,strikes
screen,html.Screen,3_1_1_6,2021-03-07T12:59:11.145Z,,,3,,,,,,426.9850000475708,response,,,,2,A,,,,,,Space,keypress(Space),,lyrical,,,,- ----- ---- ------------ ------ ------- and ------ ----<br>--- ---- -- - --------- -------- --- --------- --- ----<br>----- --------- --- ----- ----- --------- --- ---- --- ----<br>----- ---- --- --- --- ---- -- -------- ---- - --------- --<br>----- -- ----------- ----- ---- ---- ---- ----- -------- --<br>---------- ---- ----- ----- ---- ------- -----------,93813.51000000723,93812.70500004757,93369.145,93381.5750000067,93385.72,93819.374,,6,and
screen,html.Screen,3_1_1_7,2021-03-07T12:59:11.577Z,,,3,,,,,,425.1960000971594,response,,,,2,A,,,,,,Space,keypress(Space),,lyrical,,,,- ----- ---- ------------ ------ ------- --- you're ----<br>--- ---- -- - --------- -------- --- --------- --- ----<br>----- --------- --- ----- ----- --------- --- ---- --- ----<br>----- ---- --- --- --- ---- -- -------- ---- - --------- --<br>----- -- ----------- ----- ---- ---- ---- ----- -------- --<br>---------- ---- ----- ----- ---- ------- -----------,94245.42000005022,94244.57000009716,93802.773,93813.75000008848,93819.374,94252.885,,7,you're
screen,html.Screen,3_1_1_8,2021-03-07T12:59:11.977Z,,,3,,,,,,391.62500001282024,response,,,,2,A,,,,,,Space,keypress(Space),,lyrical,,,,"- ----- ---- ------------ ------ ------- --- ------ out""<br>--- ---- -- - --------- -------- --- --------- --- ----<br>----- --------- --- ----- ----- --------- --- ---- --- ----<br>----- ---- --- --- --- ---- -- -------- ---- - --------- --<br>----- -- ----------- ----- ---- ---- ---- ----- -------- --<br>---------- ---- ----- ----- ---- ------- -----------",94645.3750000801,94644.51000001281,94236.394,94245.6550000934,94252.885,94653.214,,8,"out"""
screen,html.Screen,3_1_1_9,2021-03-07T12:59:12.425Z,,,3,,,,,,439.17600000524544,response,,,,2,A,,,,,,Space,keypress(Space),,lyrical,,,,- ----- ---- ------------ ------ ------- --- ------ ----<br>law ---- -- - --------- -------- --- --------- --- ----<br>----- --------- --- ----- ----- --------- --- ---- --- ----<br>----- ---- --- --- --- ---- -- -------- ---- - --------- --<br>----- -- ----------- ----- ---- ---- ---- ----- -------- --<br>---------- ---- ----- ----- ---- ------- -----------,95093.21000007913,95092.39000000525,94636.619,94645.61500004493,94653.214,95103.405,,9,law
screen,html.Screen,3_1_1_10,2021-03-07T12:59:12.897Z,,,3,,,,,,460.9050000452262,response,,,,2,A,,,,,,Space,keypress(Space),,lyrical,,,,- ----- ---- ------------ ------ ------- --- ------ ----<br>--- will -- - --------- -------- --- --------- --- ----<br>----- --------- --- ----- ----- --------- --- ---- --- ----<br>----- ---- --- --- --- ---- -- -------- ---- - --------- --<br>----- -- ----------- ----- ---- ---- ---- ----- -------- --<br>---------- ---- ----- ----- ---- ------- -----------,95565.15500007663,95564.31000004523,95086.938,95093.43500004616,95103.405,95570.405,,10,will
screen,html.Screen,3_1_1_11,2021-03-07T12:59:13.385Z,,,3,,,,,,481.915000017063,response,,,,2,A,,,,,,Space,keypress(Space),,lyrical,,,,- ----- ---- ------------ ------ ------- --- ------ ----<br>--- ---- be - --------- -------- --- --------- --- ----<br>----- --------- --- ----- ----- --------- --- ---- --- ----<br>----- ---- --- --- --- ---- -- -------- ---- - --------- --<br>----- -- ----------- ----- ---- ---- ---- ----- -------- --<br>---------- ---- ----- ----- ---- ------- -----------,96053.1600000104,96052.32000001706,95553.876,95565.39000000339,95570.405,96070.825,,11,be
screen,html.Screen,3_1_1_12,2021-03-07T12:59:13.856Z,,,3,,,,,,453.37500010170334,response,,,,2,A,,,,,,Space,keypress(Space),,lyrical,,,,- ----- ---- ------------ ------ ------- --- ------ ----<br>--- ---- -- a --------- -------- --- --------- --- ----<br>----- --------- --- ----- ----- --------- --- ---- --- ----<br>----- ---- --- --- --- ---- -- -------- ---- - --------- --<br>----- -- ----------- ----- ---- ---- ---- ----- -------- --<br>---------- ---- ----- ----- ---- ------- -----------,96525.03500005696,96524.2000001017,96037.572,96053.40000009164,96070.825,96537.729,,12,a
screen,html.Screen,3_1_1_13,2021-03-07T12:59:14.320Z,,,3,,,,,,450.4410000259959,response,,,,2,A,,,,,,Space,keypress(Space),,lyrical,,,,- ----- ---- ------------ ------ ------- --- ------ ----<br>--- ---- -- - financial -------- --- --------- --- ----<br>----- --------- --- ----- ----- --------- --- ---- --- ----<br>----- ---- --- --- --- ---- -- -------- ---- - --------- --<br>----- -- ----------- ----- ---- ---- ---- ----- -------- --<br>---------- ---- ----- ----- ---- ------- -----------,96988.78000001423,96988.170000026,96521.179,96525.26500006206,96537.729,97004.823,,13,financial
screen,html.Screen,3_1_1_14,2021-03-07T12:59:14.784Z,,,3,,,,,,447.2520000374352,response,,,,2,A,,,,,,Space,keypress(Space),,lyrical,,,,- ----- ---- ------------ ------ ------- --- ------ ----<br>--- ---- -- - --------- disaster --- --------- --- ----<br>----- --------- --- ----- ----- --------- --- ---- --- ----<br>----- ---- --- --- --- ---- -- -------- ---- - --------- --<br>----- -- ----------- ----- ---- ---- ---- ----- -------- --<br>---------- ---- ----- ----- ---- ------- -----------,97452.92000006884,97452.07500003744,96988.185,96988.94500010647,97004.823,97455.116,,14,disaster
screen,html.Screen,3_1_1_15,2021-03-07T12:59:15.256Z,,,3,,,,,,468.964000026157,response,,,,2,A,,,,,,Space,keypress(Space),,lyrical,,,,- ----- ---- ------------ ------ ------- --- ------ ----<br>--- ---- -- - --------- -------- for --------- --- ----<br>----- --------- --- ----- ----- --------- --- ---- --- ----<br>----- ---- --- --- --- ---- -- -------- ---- - --------- --<br>----- -- ----------- ----- ---- ---- ---- ----- -------- --<br>---------- ---- ----- ----- ---- ------- -----------,97924.92500005756,97924.08000002615,97438.483,97453.15000007395,97455.116,97938.711,,15,for
screen,html.Screen,3_1_1_16,2021-03-07T12:59:15.808Z,,,3,,,,,,537.1790000015317,response,,,,2,A,,,,,,Space,keypress(Space),,lyrical,,,,- ----- ---- ------------ ------ ------- --- ------ ----<br>--- ---- -- - --------- -------- --- taxpayers --- ----<br>----- --------- --- ----- ----- --------- --- ---- --- ----<br>----- ---- --- --- --- ---- -- -------- ---- - --------- --<br>----- -- ----------- ----- ---- ---- ---- ----- -------- --<br>---------- ---- ----- ----- ---- ------- -----------,98476.665000082,98475.89000000153,97922.135,97925.16000010073,97938.711,98489.035,,16,taxpayers
screen,html.Screen,3_1_1_17,2021-03-07T12:59:16.176Z,,,3,,,,,,354.940000083443,response,,,,2,A,,,,,,Space,keypress(Space),,lyrical,,,,- ----- ---- ------------ ------ ------- --- ------ ----<br>--- ---- -- - --------- -------- --- --------- who ----<br>----- --------- --- ----- ----- --------- --- ---- --- ----<br>----- ---- --- --- --- ---- -- -------- ---- - --------- --<br>----- -- ----------- ----- ---- ---- ---- ----- -------- --<br>---------- ---- ----- ----- ---- ------- -----------,98844.84000003431,98843.97500008345,98472.495,98476.95000004023,98489.035,98855.987,,17,who
screen,html.Screen,3_1_1_18,2021-03-07T12:59:16.600Z,,,3,,,,,,411.9080000554386,response,,,,2,A,,,,,,Space,keypress(Space),,lyrical,,,,- ----- ---- ------------ ------ ------- --- ------ ----<br>--- ---- -- - --------- -------- --- --------- --- care<br>----- --------- --- ----- ----- --------- --- ---- --- ----<br>----- ---- --- --- --- ---- -- -------- ---- - --------- --<br>----- -- ----------- ----- ---- ---- ---- ----- -------- --<br>---------- ---- ----- ----- ---- ------- -----------,99268.75500008464,99267.89500005543,98839.401,98845.07999999914,98855.987,99272.973,,18,care
screen,html.Screen,3_1_1_19,2021-03-07T12:59:17.048Z,,,3,,,,,,442.7720000522677,response,,,,2,A,,,,,,Space,keypress(Space),,lyrical,,,,- ----- ---- ------------ ------ ------- --- ------ ----<br>--- ---- -- - --------- -------- --- --------- --- ----<br>about --------- --- ----- ----- --------- --- ---- --- ----<br>----- ---- --- --- --- ---- -- -------- ---- - --------- --<br>----- -- ----------- ----- ---- ---- ---- ----- -------- --<br>---------- ---- ----- ----- ---- ------- -----------,99716.58000000753,99715.74500005227,99256.334,99268.99500004947,99272.973,99723.167,,19,about
screen,html.Screen,3_1_1_20,2021-03-07T12:59:17.568Z,,,3,,,,,,512.8380000715988,response,,,,2,A,,,,,,Space,keypress(Space),,lyrical,,,,- ----- ---- ------------ ------ ------- --- ------ ----<br>--- ---- -- - --------- -------- --- --------- --- ----<br>----- education --- ----- ----- --------- --- ---- --- ----<br>----- ---- --- --- --- ---- -- -------- ---- - --------- --<br>----- -- ----------- ----- ---- ---- ---- ----- -------- --<br>---------- ---- ----- ----- ---- ------- -----------,100236.78000003565,100236.0050000716,99706.649,99716.81000001263,99723.167,100240.263,,20,education
screen,html.Screen,3_1_1_21,2021-03-07T12:59:18.000Z,,,3,,,,,,427.3470000040543,response,,,,2,A,,,,,,Space,keypress(Space),,lyrical,,,,- ----- ---- ------------ ------ ------- --- ------ ----<br>--- ---- -- - --------- -------- --- --------- --- ----<br>----- --------- and ----- ----- --------- --- ---- --- ----<br>----- ---- --- --- --- ---- -- -------- ---- - --------- --<br>----- -- ----------- ----- ---- ---- ---- ----- -------- --<br>---------- ---- ----- ----- ---- ------- -----------,100668.47500007134,100667.61000000406,100223.614,100237.01500007883,100240.263,100673.836,,21,and
screen,html.Screen,3_1_1_22,2021-03-07T12:59:18.456Z,,,3,,,,,,449.7040000587149,response,,,,2,A,,,,,,Space,keypress(Space),,lyrical,,,,- ----- ---- ------------ ------ ------- --- ------ ----<br>--- ---- -- - --------- -------- --- --------- --- ----<br>----- --------- --- other ----- --------- --- ---- --- ----<br>----- ---- --- --- --- ---- -- -------- ---- - --------- --<br>----- -- ----------- ----- ---- ---- ---- ----- -------- --<br>---------- ---- ----- ----- ---- ------- -----------,101124.36000001617,101123.54000005871,100657.265,100668.70500007644,100673.836,101140.862,,22,other
screen,html.Screen,3_1_1_23,2021-03-07T12:59:18.945Z,,,3,,,,,,471.453000034875,response,,,,2,A,,,,,,Space,keypress(Space),,lyrical,,,,- ----- ---- ------------ ------ ------- --- ------ ----<br>--- ---- -- - --------- -------- --- --------- --- ----<br>----- --------- --- ----- vital --------- --- ---- --- ----<br>----- ---- --- --- --- ---- -- -------- ---- - --------- --<br>----- -- ----------- ----- ---- ---- ---- ----- -------- --<br>---------- ---- ----- ----- ---- ------- -----------,101613.18000010215,101612.31500003487,101124.244,101124.59500005934,101140.862,101624.461,,23,vital
screen,html.Screen,3_1_1_24,2021-03-07T12:59:19.408Z,,,3,,,,,,450.87900009764417,response,,,,2,A,,,,,,Space,keypress(Space),,lyrical,,,,- ----- ---- ------------ ------ ------- --- ------ ----<br>--- ---- -- - --------- -------- --- --------- --- ----<br>----- --------- --- ----- ----- services. --- ---- --- ----<br>----- ---- --- --- --- ---- -- -------- ---- - --------- --<br>----- -- ----------- ----- ---- ---- ---- ----- -------- --<br>---------- ---- ----- ----- ---- ------- -----------,102076.11500006169,102075.34000009764,101607.888,101613.41500002891,101624.461,102091.479,,24,services.
screen,html.Screen,3_1_1_25,2021-03-07T12:59:19.928Z,,,3,,,,,,503.87599999764643,response,,,,2,A,,,,,,Space,keypress(Space),,lyrical,,,,- ----- ---- ------------ ------ ------- --- ------ ----<br>--- ---- -- - --------- -------- --- --------- --- ----<br>----- --------- --- ----- ----- --------- But ---- --- ----<br>----- ---- --- --- --- ---- -- -------- ---- - --------- --<br>----- -- ----------- ----- ---- ---- ---- ----- -------- --<br>---------- ---- ----- ----- ---- ------- -----------,102596.17500007153,102595.35499999765,102074.854,102076.3450000668,102091.479,102608.427,,25,But
screen,html.Screen,3_1_1_26,2021-03-07T12:59:20.431Z,,,3,,,,,,490.7930000910128,response,,,,2,A,,,,,,Space,keypress(Space),,lyrical,,,,- ----- ---- ------------ ------ ------- --- ------ ----<br>--- ---- -- - --------- -------- --- --------- --- ----<br>----- --------- --- ----- ----- --------- --- it's --- ----<br>----- ---- --- --- --- ---- -- -------- ---- - --------- --<br>----- -- ----------- ----- ---- ---- ---- ----- -------- --<br>---------- ---- ----- ----- ---- ------- -----------,103100.03000008874,103099.22000009101,102591.829,102596.41500003636,102608.427,103108.743,,26,it's
screen,html.Screen,3_1_1_27,2021-03-07T12:59:20.911Z,,,3,,,,,,470.447000076776,response,,,,2,A,,,,,,Space,keypress(Space),,lyrical,,,,- ----- ---- ------------ ------ ------- --- ------ ----<br>--- ---- -- - --------- -------- --- --------- --- ----<br>----- --------- --- ----- ----- --------- --- ---- far ----<br>----- ---- --- --- --- ---- -- -------- ---- - --------- --<br>----- -- ----------- ----- ---- ---- ---- ----- -------- --<br>---------- ---- ----- ----- ---- ------- -----------,103580.02000011038,103579.19000007678,103092.192,103100.25500005577,103108.743,103592.394,,27,far
screen,html.Screen,3_1_1_28,2021-03-07T12:59:21.471Z,,,3,,,,,,546.5910000850854,response,,,,2,A,,,,,,Space,keypress(Space),,lyrical,,,,- ----- ---- ------------ ------ ------- --- ------ ----<br>--- ---- -- - --------- -------- --- --------- --- ----<br>----- --------- --- ----- ----- --------- --- ---- --- from<br>----- ---- --- --- --- ---- -- -------- ---- - --------- --<br>----- -- ----------- ----- ---- ---- ---- ----- -------- --<br>---------- ---- ----- ----- ---- ------- -----------,104139.80000000447,104138.98500008509,103575.793,103580.25500003714,103592.394,104142.82,,28,from
screen,html.Screen,3_1_1_29,2021-03-07T12:59:21.951Z,,,3,,,,,,476.13000003277557,response,,,,2,A,,,,,,Space,keypress(Space),,lyrical,,,,- ----- ---- ------------ ------ ------- --- ------ ----<br>--- ---- -- - --------- -------- --- --------- --- ----<br>----- --------- --- ----- ----- --------- --- ---- --- ----<br>clear ---- --- --- --- ---- -- -------- ---- - --------- --<br>----- -- ----------- ----- ---- ---- ---- ----- -------- --<br>---------- ---- ----- ----- ---- ------- -----------,104619.75500010885,104618.95000003278,104126.204,104140.03000000957,104142.82,104626.317,,29,clear
screen,html.Screen,3_1_1_30,2021-03-07T12:59:22.447Z,,,3,,,,,,488.62800003755547,response,,,,2,A,,,,,,Space,keypress(Space),,lyrical,,,,- ----- ---- ------------ ------ ------- --- ------ ----<br>--- ---- -- - --------- -------- --- --------- --- ----<br>----- --------- --- ----- ----- --------- --- ---- --- ----<br>----- that --- --- --- ---- -- -------- ---- - --------- --<br>----- -- ----------- ----- ---- ---- ---- ----- -------- --<br>---------- ---- ----- ----- ---- ------- -----------,105115.84000010043,105114.94500003755,104609.862,104619.98000007588,104626.317,105126.767,,30,that
screen,html.Screen,3_1_1_31,2021-03-07T12:59:23.159Z,,,3,,,,,,700.1430000616092,response,,,,2,A,,,,,,Space,keypress(Space),,lyrical,,,,- ----- ---- ------------ ------ ------- --- ------ ----<br>--- ---- -- - --------- -------- --- --------- --- ----<br>----- --------- --- ----- ----- --------- --- ---- --- ----<br>----- ---- the --- --- ---- -- -------- ---- - --------- --<br>----- -- ----------- ----- ---- ---- ---- ----- -------- --<br>---------- ---- ----- ----- ---- ------- -----------,105827.74500001688,105826.91000006162,105110.184,105116.0750000272,105126.767,105843.946,,31,the
screen,html.Screen,3_1_1_32,2021-03-07T12:59:23.663Z,,,3,,,,,,486.83400007663295,response,,,,2,A,,,,,,Space,keypress(Space),,lyrical,,,,- ----- ---- ------------ ------ ------- --- ------ ----<br>--- ---- -- - --------- -------- --- --------- --- ----<br>----- --------- --- ----- ----- --------- --- ---- --- ----<br>----- ---- --- law --- ---- -- -------- ---- - --------- --<br>----- -- ----------- ----- ---- ---- ---- ----- -------- --<br>---------- ---- ----- ----- ---- ------- -----------,106331.62000006996,106330.78000007663,105827.348,105827.98000006005,105843.946,106344.236,,32,law
screen,html.Screen,3_1_1_33,2021-03-07T12:59:24.071Z,,,3,,,,,,394.4340001079545,response,,,,2,A,,,,,,Space,keypress(Space),,lyrical,,,,- ----- ---- ------------ ------ ------- --- ------ ----<br>--- ---- -- - --------- -------- --- --------- --- ----<br>----- --------- --- ----- ----- --------- --- ---- --- ----<br>----- ---- --- --- can ---- -- -------- ---- - --------- --<br>----- -- ----------- ----- ---- ---- ---- ----- -------- --<br>---------- ---- ----- ----- ---- ------- -----------,106739.47000002954,106738.67000010796,106327.645,106331.8600000348,106344.236,106744.481,,33,can
screen,html.Screen,3_1_1_34,2021-03-07T12:59:24.495Z,,,3,,,,,,418.14900003527873,response,,,,2,A,,,,,,Space,keypress(Space),,lyrical,,,,- ----- ---- ------------ ------ ------- --- ------ ----<br>--- ---- -- - --------- -------- --- --------- --- ----<br>----- --------- --- ----- ----- --------- --- ---- --- ----<br>----- ---- --- --- --- even -- -------- ---- - --------- --<br>----- -- ----------- ----- ---- ---- ---- ----- -------- --<br>---------- ---- ----- ----- ---- ------- -----------,107163.39000000153,107162.63000003528,106727.858,106739.71500003245,106744.481,107178.152,,34,even
screen,html.Screen,3_1_1_35,2021-03-07T12:59:24.983Z,,,3,,,,,,472.3680000246968,response,,,,2,A,,,,,,Space,keypress(Space),,lyrical,,,,- ----- ---- ------------ ------ ------- --- ------ ----<br>--- ---- -- - --------- -------- --- --------- --- ----<br>----- --------- --- ----- ----- --------- --- ---- --- ----<br>----- ---- --- --- --- ---- be -------- ---- - --------- --<br>----- -- ----------- ----- ---- ---- ---- ----- -------- --<br>---------- ---- ----- ----- ---- ------- -----------,107651.32500010077,107650.5200000247,107161.529,107163.63000008278,107178.152,107661.738,,35,be
screen,html.Screen,3_1_1_36,2021-03-07T12:59:25.391Z,,,3,,,,,,396.69200009190536,response,,,,2,A,,,,,,Space,keypress(Space),,lyrical,,,,- ----- ---- ------------ ------ ------- --- ------ ----<br>--- ---- -- - --------- -------- --- --------- --- ----<br>----- --------- --- ----- ----- --------- --- ---- --- ----<br>----- ---- --- --- --- ---- -- credited ---- - --------- --<br>----- -- ----------- ----- ---- ---- ---- ----- -------- --<br>---------- ---- ----- ----- ---- ------- -----------,108059.21000009403,108058.4300000919,107645.173,107651.57000010367,107661.738,108062.051,,36,credited
screen,html.Screen,3_1_1_37,2021-03-07T12:59:25.871Z,,,3,,,,,,476.36400007546763,response,,,,2,A,,,,,,Space,keypress(Space),,lyrical,,,,- ----- ---- ------------ ------ ------- --- ------ ----<br>--- ---- -- - --------- -------- --- --------- --- ----<br>----- --------- --- ----- ----- --------- --- ---- --- ----<br>----- ---- --- --- --- ---- -- -------- with - --------- --<br>----- -- ----------- ----- ---- ---- ---- ----- -------- --<br>---------- ---- ----- ----- ---- ------- -----------,108539.25000003073,108538.41500007547,108045.419,108059.44500002079,108062.051,108545.653,,37,with
screen,html.Screen,3_1_1_38,2021-03-07T12:59:26.287Z,,,3,,,,,,408.6970000145229,response,,,,2,A,,,,,,Space,keypress(Space),,lyrical,,,,- ----- ---- ------------ ------ ------- --- ------ ----<br>--- ---- -- - --------- -------- --- --------- --- ----<br>----- --------- --- ----- ----- --------- --- ---- --- ----<br>----- ---- --- --- --- ---- -- -------- ---- a --------- --<br>----- -- ----------- ----- ---- ---- ---- ----- -------- --<br>---------- ---- ----- ----- ---- ------- -----------,108955.1850000862,108954.35000001453,108529.096,108539.49500003364,108545.653,108962.53,,38,a
screen,html.Screen,3_1_1_39,2021-03-07T12:59:26.710Z,,,3,,,,,,415.72500010512886,response,,,,2,A,,,,,,Space,keypress(Space),,lyrical,,,,- ----- ---- ------------ ------ ------- --- ------ ----<br>--- ---- -- - --------- -------- --- --------- --- ----<br>----- --------- --- ----- ----- --------- --- ---- --- ----<br>----- ---- --- --- --- ---- -- -------- ---- - reduction --<br>----- -- ----------- ----- ---- ---- ---- ----- -------- --<br>---------- ---- ----- ----- ---- ------- -----------,109379.06000006478,109378.25500010513,108946.025,108955.42000001296,108962.53,109396.277,,39,reduction
screen,html.Screen,3_1_1_40,2021-03-07T12:59:27.190Z,,,3,,,,,,461.91800009529106,response,,,,2,A,,,,,,Space,keypress(Space),,lyrical,,,,- ----- ---- ------------ ------ ------- --- ------ ----<br>--- ---- -- - --------- -------- --- --------- --- ----<br>----- --------- --- ----- ----- --------- --- ---- --- ----<br>----- ---- --- --- --- ---- -- -------- ---- - --------- in<br>----- -- ----------- ----- ---- ---- ---- ----- -------- --<br>---------- ---- ----- ----- ---- ------- -----------,109859.05500000808,109858.1950000953,109379.628,109379.29500010796,109396.277,109863.238,,40,in
screen,html.Screen,3_1_1_41,2021-03-07T12:59:27.598Z,,,3,,,,,,402.8270000907505,response,,,,2,A,,,,,,Space,keypress(Space),,lyrical,,,,- ----- ---- ------------ ------ ------- --- ------ ----<br>--- ---- -- - --------- -------- --- --------- --- ----<br>----- --------- --- ----- ----- --------- --- ---- --- ----<br>----- ---- --- --- --- ---- -- -------- ---- - --------- --<br>crime -- ----------- ----- ---- ---- ---- ----- -------- --<br>---------- ---- ----- ----- ---- ------- -----------,110266.90500008408,110266.06500009075,109846.612,109859.29000005126,109863.238,110280.185,,41,crime
screen,html.Screen,3_1_1_42,2021-03-07T12:59:28.078Z,,,3,,,,,,465.90500002965564,response,,,,2,A,,,,,,Space,keypress(Space),,lyrical,,,,- ----- ---- ------------ ------ ------- --- ------ ----<br>--- ---- -- - --------- -------- --- --------- --- ----<br>----- --------- --- ----- ----- --------- --- ---- --- ----<br>----- ---- --- --- --- ---- -- -------- ---- - --------- --<br>----- in ----------- ----- ---- ---- ---- ----- -------- --<br>---------- ---- ----- ----- ---- ------- -----------,110746.88000010792,110746.09000002965,110263.562,110267.13000005111,110280.185,110763.825,,42,in
screen,html.Screen,3_1_1_43,2021-03-07T12:59:28.494Z,,,3,,,,,,398.0850000243663,response,,,,2,A,,,,,,Space,keypress(Space),,lyrical,,,,- ----- ---- ------------ ------ ------- --- ------ ----<br>--- ---- -- - --------- -------- --- --------- --- ----<br>----- --------- --- ----- ----- --------- --- ---- --- ----<br>----- ---- --- --- --- ---- -- -------- ---- - --------- --<br>----- -- California. ----- ---- ---- ---- ----- -------- --<br>---------- ---- ----- ----- ---- ------- -----------,111162.69500006456,111161.91000002436,110747.197,110747.11500003468,110763.825,111193.03,,43,California.
screen,html.Screen,3_1_1_44,2021-03-07T12:59:28.934Z,,,3,,,,,,408.775000100286,response,,,,2,A,,,,,,Space,keypress(Space),,lyrical,,,,- ----- ---- ------------ ------ ------- --- ------ ----<br>--- ---- -- - --------- -------- --- --------- --- ----<br>----- --------- --- ----- ----- --------- --- ---- --- ----<br>----- ---- --- --- --- ---- -- -------- ---- - --------- --<br>----- -- ----------- While ---- ---- ---- ----- -------- --<br>---------- ---- ----- ----- ---- ------- -----------,111602.5700001046,111601.80500010028,111147.448,111162.92500006966,111193.03,111614.283,,44,While
screen,html.Screen,3_1_1_45,2021-03-07T12:59:29.399Z,,,3,,,,,,452.35700009186985,response,,,,2,A,,,,,,Space,keypress(Space),,lyrical,,,,- ----- ---- ------------ ------ ------- --- ------ ----<br>--- ---- -- - --------- -------- --- --------- --- ----<br>----- --------- --- ----- ----- --------- --- ---- --- ----<br>----- ---- --- --- --- ---- -- -------- ---- - --------- --<br>----- -- ----------- ----- it's ---- ---- ----- -------- --<br>---------- ---- ----- ----- ---- ------- -----------,112067.45500001125,112066.64000009187,111597.756,111602.80000010971,111614.283,112081.372,,45,it's
screen,html.Screen,3_1_1_46,2021-03-07T12:59:29.902Z,,,3,,,,,,488.4730000490963,response,,,,2,A,,,,,,Space,keypress(Space),,lyrical,,,,- ----- ---- ------------ ------ ------- --- ------ ----<br>--- ---- -- - --------- -------- --- --------- --- ----<br>----- --------- --- ----- ----- --------- --- ---- --- ----<br>----- ---- --- --- --- ---- -- -------- ---- - --------- --<br>----- -- ----------- ----- ---- true ---- ----- -------- --<br>---------- ---- ----- ----- ---- ------- -----------,112570.68000000436,112569.8450000491,112064.721,112067.69000005443,112081.372,112581.635,,46,true
screen,html.Screen,3_1_1_47,2021-03-07T12:59:30.374Z,,,3,,,,,,460.05000006199407,response,,,,2,A,,,,,,Space,keypress(Space),,lyrical,,,,- ----- ---- ------------ ------ ------- --- ------ ----<br>--- ---- -- - --------- -------- --- --------- --- ----<br>----- --------- --- ----- ----- --------- --- ---- --- ----<br>----- ---- --- --- --- ---- -- -------- ---- - --------- --<br>----- -- ----------- ----- ---- ---- that ----- -------- --<br>---------- ---- ----- ----- ---- ------- -----------,113042.48000006191,113041.68500006199,112565.069,112570.91500004753,112581.635,113048.603,,47,that
screen,html.Screen,3_1_1_48,2021-03-07T12:59:30.814Z,,,3,,,,,,432.9220000683563,response,,,,2,A,,,,,,Space,keypress(Space),,lyrical,,,,- ----- ---- ------------ ------ ------- --- ------ ----<br>--- ---- -- - --------- -------- --- --------- --- ----<br>----- --------- --- ----- ----- --------- --- ---- --- ----<br>----- ---- --- --- --- ---- -- -------- ---- - --------- --<br>----- -- ----------- ----- ---- ---- ---- crime -------- --<br>---------- ---- ----- ----- ---- ------- -----------,113482.33000002801,113481.52500006836,113032.031,113042.71500010509,113048.603,113498.959,,48,crime
