sender,sender_type,sender_id,timestamp,meta,,Blues,Classical,Country,Dance,Electronic,Folk,Gospel,Hip-Hop,Jazz,Latin,Musical/Film,New-age,Pop,Provo_ID,R&B,Rap,Reggae,Religious,Rock,Soul,Swing,Traditional,age,artist_name,correct,correctResponse,distraction,duration,education,ended_on,familiarity,gender,headphone_check_performance,item,list,music_frequency,offensiveness,pleasantness,position_correct,preference,response,response_action,snippet_file,song_name,song_rating,sound,stimulus_1,stimulus_2,stimulus_3,text,time_commit,time_end,time_render,time_run,time_show,time_switch,url,word,word_ID
Introduction,html.Screen,0_0,2021-04-02T22:47:15.807Z,"{""labjs_version"":""20.2.2"",""labjs_build"":{""flavor"":""production"",""commit"":""a25486e0c714a0ae2ce03ff94b7bb6896854dcfa""},""location"":""https://run.pavlovia.org/mvasilev/spr_test/"",""userAgent"":""Mozilla/5.0 (Windows NT 10.0; Win64; x64) AppleWebKit/537.36 (KHTML, like Gecko) Chrome/89.0.4389.114 Safari/537.36 Edg/89.0.774.68"",""platform"":""Win32"",""language"":""de"",""locale"":""de"",""timeZone"":""Europe/London"",""timezoneOffset"":-60,""screen_width"":2560,""screen_height"":1440,""scroll_width"":2560,""scroll_height"":1319,""window_innerWidth"":2560,""window_innerHeight"":1367,""devicePixelRatio"":1}",,,,,,,,,,,,,,,,,,,,,,,,,,,,,12410.767999832959,,response,,,,,,,,,,,continue,click button,,,,,,,,,21816.029999870807,21813.639999832958,9352.843,9363.709999946877,9402.872,21827.708,{},,
Volume calibration,html.Screen,0_1,2021-04-02T22:47:41.070Z,,,,,,,,,,,,,,,,,,,,,,,,,,,,,,25246.046999786617,,response,,,,,,,,,,,continue,click button,,,,,,,,,47078.899999847636,47073.754999786615,21811.045,21817.234999965876,21827.708,47077.612,,,
Task instructions,html.Screen,0_2,2021-04-02T22:47:51.848Z,,,,,,,,,,,,,,,,,,,,,,,,,,,,,,10778.477999899267,,response,,,,,,,,,,,continue,click button,,,,,,,,,57857.26499999873,57856.08999989927,47060.953,47079.21999995597,47077.612,57867.912,,,
Sounds,html.Screen,0_3_0_0,2021-04-02T22:47:56.099Z,,,,,,,,,,,,,,,,,,,,,,,,,,,,,,4252.747000000003,,timeout,,,,,,,,,1,,,,,,,,S,O,I,,62108.6799998302,62104.13,57851.364,57857.799999881536,57867.912,62120.659,,,
Judgement,html.Screen,0_3_0_1,2021-04-02T22:47:56.735Z,,,,,,,,,,,,,,,,,,,,,,,,,,,true,1,,622.6359999347333,,response,,,,,,,,,1,,1,click #choice-1,,,,,S,O,I,,62744.47499983944,62743.29499993473,62104.13,62109.004999976605,62120.659,62754.528,,,
Trial,flow.Sequence,0_3_0,2021-04-02T22:47:56.736Z,,,,,,,,,,,,,,,,,,,,,,,,,,,,,,4875.382999934736,,completion,,,,,,,,,1,,,,,,,,S,O,I,,62745.12499989942,62743.29499993473,57851.364,57857.689999975264,57867.912,62754.528,,,
Sounds,html.Screen,0_3_1_0,2021-04-02T22:48:00.982Z,,,,,,,,,,,,,,,,,,,,,,,,,,,,,,4252.843000000001,,timeout,,,,,,,,,2,,,,,,,,I,S,O,,66991.65999982506,66990.64,62737.912,62745.44999981299,62754.528,67007.371,,,
Judgement,html.Screen,0_3_1_1,2021-04-02T22:48:01.590Z,,,,,,,,,,,,,,,,,,,,,,,,,,,true,2,,591.1339998853364,,response,,,,,,,,,2,,2,click #choice-2,,,,,I,S,O,,67599.6299998369,67598.50499988534,66990.64,66991.91499990411,67007.371,67607.697,,,
Trial,flow.Sequence,0_3_1,2021-04-02T22:48:01.591Z,,,,,,,,,,,,,,,,,,,,,,,,,,,,,,4843.976999885337,,completion,,,,,,,,,2,,,,,,,,I,S,O,,67600.04999977536,67598.50499988534,62737.912,62745.354999788105,62754.528,67607.697,,,
Sounds,html.Screen,0_3_2_0,2021-04-02T22:48:05.835Z,,,,,,,,,,,,,,,,,,,,,,,,,,,,,,4252.858999999997,,timeout,,,,,,,,,2,,,,,,,,O,S,I,,71844.73499981686,71843.863,67591.108,67600.35999980755,67607.697,71860.556,,,
Judgement,html.Screen,0_3_2_1,2021-04-02T22:48:06.725Z,,,,,,,,,,,,,,,,,,,,,,,,,,,true,2,,873.1939998975577,,response,,,,,,,,,2,,2,click #choice-2,,,,,O,S,I,,72734.71999983303,72733.74999989755,71843.863,71844.98499985784,71860.556,72744.424,,,
Trial,flow.Sequence,0_3_2,2021-04-02T22:48:06.726Z,,,,,,,,,,,,,,,,,,,,,,,,,,,,,,5126.052999897554,,completion,,,,,,,,,2,,,,,,,,O,S,I,,72735.11499981396,72733.74999989755,67591.108,67600.26999982074,67607.697,72744.424,,,
Sounds,html.Screen,0_3_3_0,2021-04-02T22:48:10.972Z,,,,,,,,,,,,,,,,,,,,,,,,,,,,,,4252.831999999995,,timeout,,,,,,,,,3,,,,,,,,I,O,S,,76981.68499977328,76980.583,72727.803,72735.41500000283,72744.424,76997.256,,,
Judgement,html.Screen,0_3_3_1,2021-04-02T22:48:11.413Z,,,,,,,,,,,,,,,,,,,,,,,,,,,true,3,,423.83399984339485,,response,,,,,,,,,3,,3,click #choice-3,,,,,I,O,S,,77422.29999997653,77421.08999984339,76980.583,76981.92999977618,76997.256,77430.821,,,
Trial,flow.Sequence,0_3_3,2021-04-02T22:48:11.413Z,,,,,,,,,,,,,,,,,,,,,,,,,,,,,,4676.66599984339,,completion,,,,,,,,,3,,,,,,,,I,O,S,,77422.67999984324,77421.08999984339,72727.803,72735.31999997795,72744.424,77430.821,,,
Sounds,html.Screen,0_3_4_0,2021-04-02T22:48:15.659Z,,,,,,,,,,,,,,,,,,,,,,,,,,,,,,4252.798999999999,,timeout,,,,,,,,,1,,,,,,,,S,I,O,,81667.93499980122,81666.937,77414.229,77422.92999988422,77430.821,81683.62,,,
Judgement,html.Screen,0_3_4_1,2021-04-02T22:48:16.116Z,,,,,,,,,,,,,,,,,,,,,,,,,,,true,1,,440.6899998682784,,response,,,,,,,,,1,,1,click #choice-1,,,,,S,I,O,,82125.36499998532,82124.30999986827,81666.937,81668.17999980412,81683.62,82133.861,,,
Trial,flow.Sequence,0_3_4,2021-04-02T22:48:16.116Z,,,,,,,,,,,,,,,,,,,,,,,,,,,,,,4693.4889998682775,,completion,,,,,,,,,1,,,,,,,,S,I,O,,82125.73499977589,82124.30999986827,77414.229,77422.85999981686,77430.821,82133.861,,,
Sounds,html.Screen,0_3_5_0,2021-04-02T22:48:20.361Z,,,,,,,,,,,,,,,,,,,,,,,,,,,,,,4252.890999999989,,timeout,,,,,,,,,3,,,,,,,,O,I,S,,86370.82499987446,86370.029,82117.299,82125.98499981686,82133.861,86386.752,,,
Judgement,html.Screen,0_3_5_1,2021-04-02T22:48:22.499Z,,,,,,,,,,,,,,,,,,,,,,,,,,,true,3,,2120.587999778203,,response,,,,,,,,,3,,3,click #choice-3,,,,,O,I,S,,88508.3549998235,88507.3399997782,86370.029,86371.0499999579,86386.752,88521.493,,,
Trial,flow.Sequence,0_3_5,2021-04-02T22:48:22.499Z,,,,,,,,,,,,,,,,,,,,,,,,,,,,,,6373.478999778192,,completion,,,,,,,,,3,,,,,,,,O,I,S,,88508.69999988936,88507.3399997782,82117.299,82125.90999994427,82133.861,88521.493,,,
Task,flow.Loop,0_3,2021-04-02T22:48:22.508Z,,,,,,,,,,,,,,,,,,,,,,,,,,,,,,30639.4279997782,,completion,,,1,,,,,,,,,,,,,,,,,,88517.03999983147,88507.3399997782,57851.364,57857.584999874234,57867.912,88521.493,,,
Trap,html.Screen,0_4,2021-04-02T22:48:22.514Z,,,,,,,,,,,,,,,,,,,,,,,,,,,,,,NaN,,skipped,,,,,,,,,,,,,,,,,,,,,88522.9199999012,88507.3399997782,,88522.64999994077,,88521.493,,,
Thanks,html.Screen,0_5,2021-04-02T22:48:27.434Z,,,,,,,,,,,,,,,,,,,,,,,,,,,,,,4921.116999794511,,response,,,,,,,,,,,continue,click button,,,,,,,,,93443.72499990277,93442.60999979451,88504.819,88523.1499997899,88521.493,95059.089,,,
Headphone screening,flow.Sequence,0,2021-04-02T22:48:27.435Z,,,,,,,,,,,,,,,,,,,,,,,,,,,,,,84039.73799979451,,completion,,,,,,,,,,,,,,,,,,,,,93444.09499992616,93442.60999979451,9352.843,9363.649999955669,9402.872,95059.089,,,
Instructions,html.Page,1_0,2021-04-02T22:49:10.001Z,,,,,,,,,,,,,,,,,,,,,,,,,,,,,,40950.355999974214,,form submission,,,,,,,,,,,,,,,,,,,,,136009.92999994196,136009.44499997422,95042.428,95047.99999995157,95059.089,136019.342,,,
Holding screen,html.Screen,1_1_0_0,2021-04-02T22:49:20.001Z,,,,,,,,,,,,,,,,,,,,,,,,,,,,,,10006.491999999998,,timeout,,,,,,,,,,,,,,,,,,,,,146009.91499982774,146009.216,136002.633,136010.38999995217,136019.342,146025.834,,,
screen,html.Screen,1_1_0_1_0,2021-04-02T22:49:21.493Z,,,,,,,,,,,,,,,,53,,,,,,,,,,,,,,1471.8709999870334,,response,,,,99,,,,,,,Space,keypress(Space),,,,,,,,When -- ----- -- ------ - ------- --- ----------<br>------------- ------ ------ ---- ---- ------- ----- -- ----<br>-------- ------- -- ---------- --- - --- ----- ----- ----<br>---- --- --- ----- --- ---- ---- ------- ----- ---- -------<br>--- --- -- ----- -- --- ---- -- --- ---- -- ------ ------<br>--- ----- -- ----,147501.93999987096,147497.70499998704,146009.216,146010.2899998892,146025.834,147510.182,,0,When
screen,html.Screen,1_1_0_1_1,2021-04-02T22:49:22.281Z,,,,,,,,,,,,,,,,53,,,,,,,,,,,,,,778.9129998982244,,response,,,,99,,,,,,,Space,keypress(Space),,,,,,,,---- it ----- -- ------ - ------- --- ----------<br>------------- ------ ------ ---- ---- ------- ----- -- ----<br>-------- ------- -- ---------- --- - --- ----- ----- ----<br>---- --- --- ----- --- ---- ---- ------- ----- ---- -------<br>--- --- -- ----- -- --- ---- -- --- ---- -- ------ ------<br>--- ----- -- ----,148289.8499998264,148289.09499989823,147493.725,147502.2249999456,147510.182,148294.017,,1,it
screen,html.Screen,1_1_0_1_2,2021-04-02T22:49:22.945Z,,,,,,,,,,,,,,,,53,,,,,,,,,,,,,,659.0329998945817,,response,,,,99,,,,,,,Space,keypress(Space),,,,,,,,---- -- comes -- ------ - ------- --- ----------<br>------------- ------ ------ ---- ---- ------- ----- -- ----<br>-------- ------- -- ---------- --- - --- ----- ----- ----<br>---- --- --- ----- --- ---- ---- ------- ----- ---- -------<br>--- --- -- ----- -- --- ---- -- --- ---- -- ------ ------<br>--- ----- -- ----,148953.94499995746,148953.04999989457,148277.434,148290.084999986,148294.017,148961.114,,2,comes
screen,html.Screen,1_1_0_1_3,2021-04-02T22:49:23.649Z,,,,,,,,,,,,,,,,53,,,,,,,,,,,,,,695.805999979435,,response,,,,99,,,,,,,Space,keypress(Space),,,,,,,,---- -- ----- to ------ - ------- --- ----------<br>------------- ------ ------ ---- ---- ------- ----- -- ----<br>-------- ------- -- ---------- --- - --- ----- ----- ----<br>---- --- --- ----- --- ---- ---- ------- ----- ---- -------<br>--- --- -- ----- -- --- ---- -- --- ---- -- ------ ------<br>--- ----- -- ----,149657.7799997758,149656.91999997944,148944.448,148954.1849999223,148961.114,149661.585,,3,to
screen,html.Screen,1_1_0_1_4,2021-04-02T22:49:24.161Z,,,,,,,,,,,,,,,,53,,,,,,,,,,,,,,507.2299999827228,,response,,,,99,,,,,,,Space,keypress(Space),,,,,,,,---- -- ----- -- having - ------- --- ----------<br>------------- ------ ------ ---- ---- ------- ----- -- ----<br>-------- ------- -- ---------- --- - --- ----- ----- ----<br>---- --- --- ----- --- ---- ---- ------- ----- ---- -------<br>--- --- -- ----- -- --- ---- -- --- ---- -- ------ ------<br>--- ----- -- ----,150169.61999982595,150168.81499998271,149645.025,149658.01999997348,149661.585,150178.6,,4,having
screen,html.Screen,1_1_0_1_5,2021-04-02T22:49:24.689Z,,,,,,,,,,,,,,,,53,,,,,,,,,,,,,,518.094999933237,,response,,,,99,,,,,,,Space,keypress(Space),,,,,,,,---- -- ----- -- ------ a ------- --- ----------<br>------------- ------ ------ ---- ---- ------- ----- -- ----<br>-------- ------- -- ---------- --- - --- ----- ----- ----<br>---- --- --- ----- --- ---- ---- ------- ----- ---- -------<br>--- --- -- ----- -- --- ---- -- --- ---- -- ------ ------<br>--- ----- -- ----,150697.4249999039,150696.69499993324,150161.967,150169.8599997908,150178.6,150712.281,,5,a
screen,html.Screen,1_1_0_1_6,2021-04-02T22:49:25.160Z,,,,,,,,,,,,,,,,53,,,,,,,,,,,,,,456.32899981873925,,response,,,,99,,,,,,,Space,keypress(Space),,,,,,,,---- -- ----- -- ------ - lasting --- ----------<br>------------- ------ ------ ---- ---- ------- ----- -- ----<br>-------- ------- -- ---------- --- - --- ----- ----- ----<br>---- --- --- ----- --- ---- ---- ------- ----- ---- -------<br>--- --- -- ----- -- --- ---- -- --- ---- -- ------ ------<br>--- ----- -- ----,151169.31499983184,151168.60999981873,150695.701,150697.66499986872,150712.281,151179.195,,6,lasting
screen,html.Screen,1_1_0_1_7,2021-04-02T22:49:25.673Z,,,,,,,,,,,,,,,,53,,,,,,,,,,,,,,501.4399998805602,,response,,,,99,,,,,,,Space,keypress(Space),,,,,,,,---- -- ----- -- ------ - ------- and ----------<br>------------- ------ ------ ---- ---- ------- ----- -- ----<br>-------- ------- -- ---------- --- - --- ----- ----- ----<br>---- --- --- ----- --- ---- ---- ------- ----- ---- -------<br>--- --- -- ----- -- --- ---- -- --- ---- -- ------ ------<br>--- ----- -- ----,151681.43499991857,151680.63499988057,151162.54,151169.5399999153,151179.195,151696.325,,7,and
screen,html.Screen,1_1_0_1_8,2021-04-02T22:49:26.344Z,,,,,,,,,,,,,,,,53,,,,,,,,,,,,,,656.2199999142322,,response,,,,99,,,,,,,Space,keypress(Space),,,,,,,,---- -- ----- -- ------ - ------- --- fulfilling<br>------------- ------ ------ ---- ---- ------- ----- -- ----<br>-------- ------- -- ---------- --- - --- ----- ----- ----<br>---- --- --- ----- --- ---- ---- ------- ----- ---- -------<br>--- --- -- ----- -- --- ---- -- --- ---- -- ------ ------<br>--- ----- -- ----,152353.37499994785,152352.54499991424,151679.617,151681.67999992147,151696.325,152363.326,,8,fulfilling
screen,html.Screen,1_1_0_1_9,2021-04-02T22:49:26.968Z,,,,,,,,,,,,,,,,53,,,,,,,,,,,,,,613.1089998440584,,response,,,,99,,,,,,,Space,keypress(Space),,,,,,,,"---- -- ----- -- ------ - ------- --- ----------<br>relationship, ------ ------ ---- ---- ------- ----- -- ----<br>-------- ------- -- ---------- --- - --- ----- ----- ----<br>---- --- --- ----- --- ---- ---- ------- ----- ---- -------<br>--- --- -- ----- -- --- ---- -- --- ---- -- ------ ------<br>--- ----- -- ----",152977.26999991573,152976.43499984406,152346.806,152353.62499998882,152363.326,152980.481,,9,"relationship,"
screen,html.Screen,1_1_0_1_10,2021-04-02T22:49:27.528Z,,,,,,,,,,,,,,,,53,,,,,,,,,,,,,,555.8239998413774,,response,,,,99,,,,,,,Space,keypress(Space),,,,,,,,---- -- ----- -- ------ - ------- --- ----------<br>------------- common ------ ---- ---- ------- ----- -- ----<br>-------- ------- -- ---------- --- - --- ----- ----- ----<br>---- --- --- ----- --- ---- ---- ------- ----- ---- -------<br>--- --- -- ----- -- --- ---- -- --- ---- -- ------ ------<br>--- ----- -- ----,153537.07999992184,153536.30499984138,152963.857,152977.5199999567,152980.481,153547.482,,10,common
screen,html.Screen,1_1_0_1_11,2021-04-02T22:49:28.064Z,,,,,,,,,,,,,,,,53,,,,,,,,,,,,,,524.8479998790135,,response,,,,99,,,,,,,Space,keypress(Space),,,,,,,,---- -- ----- -- ------ - ------- --- ----------<br>------------- ------ wisdom ---- ---- ------- ----- -- ----<br>-------- ------- -- ---------- --- - --- ----- ----- ----<br>---- --- --- ----- --- ---- ---- ------- ----- ---- -------<br>--- --- -- ----- -- --- ---- -- --- ---- -- ------ ------<br>--- ----- -- ----,154073.19499994628,154072.329999879,153530.854,153537.3149998486,153547.482,154081.126,,11,wisdom
screen,html.Screen,1_1_0_1_12,2021-04-02T22:49:28.536Z,,,,,,,,,,,,,,,,53,,,,,,,,,,,,,,463.1239998025703,,response,,,,99,,,,,,,Space,keypress(Space),,,,,,,,---- -- ----- -- ------ - ------- --- ----------<br>------------- ------ ------ says ---- ------- ----- -- ----<br>-------- ------- -- ---------- --- - --- ----- ----- ----<br>---- --- --- ----- --- ---- ---- ------- ----- ---- -------<br>--- --- -- ----- -- --- ---- -- --- ---- -- ------ ------<br>--- ----- -- ----,154545.08499987423,154544.24999980256,154064.568,154073.4499997925,154081.126,154548.138,,12,says
screen,html.Screen,1_1_0_1_13,2021-04-02T22:49:29.040Z,,,,,,,,,,,,,,,,53,,,,,,,,,,,,,,499.85199987542,,response,,,,99,,,,,,,Space,keypress(Space),,,,,,,,---- -- ----- -- ------ - ------- --- ----------<br>------------- ------ ------ ---- that ------- ----- -- ----<br>-------- ------- -- ---------- --- - --- ----- ----- ----<br>---- --- --- ----- --- ---- ---- ------- ----- ---- -------<br>--- --- -- ----- -- --- ---- -- --- ---- -- ------ ------<br>--- ----- -- ----,155048.71000000276,155047.98999987543,154531.542,154545.32499983907,154548.138,155065.147,,13,that
screen,html.Screen,1_1_0_1_14,2021-04-02T22:49:29.536Z,,,,,,,,,,,,,,,,53,,,,,,,,,,,,,,478.81299992266577,,response,,,,99,,,,,,,Space,keypress(Space),,,,,,,,---- -- ----- -- ------ - ------- --- ----------<br>------------- ------ ------ ---- ---- feeling ----- -- ----<br>-------- ------- -- ---------- --- - --- ----- ----- ----<br>---- --- --- ----- --- ---- ---- ------- ----- ---- -------<br>--- --- -- ----- -- --- ---- -- --- ---- -- ------ ------<br>--- ----- -- ----,155544.7049997747,155543.95999992266,155048.552,155048.94499992952,155065.147,155548.818,,14,feeling
screen,html.Screen,1_1_0_1_15,2021-04-02T22:49:30.040Z,,,,,,,,,,,,,,,,53,,,,,,,,,,,,,,499.0419998168654,,response,,,,99,,,,,,,Space,keypress(Space),,,,,,,,---- -- ----- -- ------ - ------- --- ----------<br>------------- ------ ------ ---- ---- ------- close -- ----<br>-------- ------- -- ---------- --- - --- ----- ----- ----<br>---- --- --- ----- --- ---- ---- ------- ----- ---- -------<br>--- --- -- ----- -- --- ---- -- --- ---- -- ------ ------<br>--- ----- -- ----,156048.56999986805,156047.85999981686,155532.147,155544.9349998962,155548.818,156065.859,,15,close
screen,html.Screen,1_1_0_1_16,2021-04-02T22:49:30.592Z,,,,,,,,,,,,,,,,53,,,,,,,,,,,,,,533.9009998954716,,response,,,,99,,,,,,,Space,keypress(Space),,,,,,,,---- -- ----- -- ------ - ------- --- ----------<br>------------- ------ ------ ---- ---- ------- ----- to ----<br>-------- ------- -- ---------- --- - --- ----- ----- ----<br>---- --- --- ----- --- ---- ---- ------- ----- ---- -------<br>--- --- -- ----- -- --- ---- -- --- ---- -- ------ ------<br>--- ----- -- ----,156600.53499997593,156599.75999989547,156049.158,156048.80999983288,156065.859,156616.163,,16,to
screen,html.Screen,1_1_0_1_17,2021-04-02T22:49:31.088Z,,,,,,,,,,,,,,,,53,,,,,,,,,,,,,,479.53199990902795,,response,,,,99,,,,,,,Space,keypress(Space),,,,,,,,---- -- ----- -- ------ - ------- --- ----------<br>------------- ------ ------ ---- ---- ------- ----- -- your<br>-------- ------- -- ---------- --- - --- ----- ----- ----<br>---- --- --- ----- --- ---- ---- ------- ----- ---- -------<br>--- --- -- ----- -- --- ---- -- --- ---- -- ------ ------<br>--- ----- -- ----,157096.45999991335,157095.69499990903,156599.51,156600.77999997884,156616.163,157099.796,,17,your
screen,html.Screen,1_1_0_1_18,2021-04-02T22:49:31.632Z,,,,,,,,,,,,,,,,53,,,,,,,,,,,,,,540.408999828709,,response,,,,99,,,,,,,Space,keypress(Space),,,,,,,,---- -- ----- -- ------ - ------- --- ----------<br>------------- ------ ------ ---- ---- ------- ----- -- ----<br>romantic ------- -- ---------- --- - --- ----- ----- ----<br>---- --- --- ----- --- ---- ---- ------- ----- ---- -------<br>--- --- -- ----- -- --- ---- -- --- ---- -- ------ ------<br>--- ----- -- ----,157640.98999998532,157640.2049998287,157083.167,157096.6949998401,157099.796,157650.18,,18,romantic
screen,html.Screen,1_1_0_1_19,2021-04-02T22:49:32.144Z,,,,,,,,,,,,,,,,53,,,,,,,,,,,,,,501.4749999360065,,response,,,,99,,,,,,,Space,keypress(Space),,,,,,,,---- -- ----- -- ------ - ------- --- ----------<br>------------- ------ ------ ---- ---- ------- ----- -- ----<br>-------- partner -- ---------- --- - --- ----- ----- ----<br>---- --- --- ----- --- ---- ---- ------- ----- ---- -------<br>--- --- -- ----- -- --- ---- -- --- ---- -- ------ ------<br>--- ----- -- ----,158152.48999977484,158151.654999936,157633.536,157641.22499991208,157650.18,158167.196,,19,partner
screen,html.Screen,1_1_0_1_20,2021-04-02T22:49:32.591Z,,,,,,,,,,,,,,,,53,,,,,,,,,,,,,,432.34399985009804,,response,,,,99,,,,,,,Space,keypress(Space),,,,,,,,---- -- ----- -- ------ - ------- --- ----------<br>------------- ------ ------ ---- ---- ------- ----- -- ----<br>-------- ------- is ---------- --- - --- ----- ----- ----<br>---- --- --- ----- --- ---- ---- ------- ----- ---- -------<br>--- --- -- ----- -- --- ---- -- --- ---- -- ------ ------<br>--- ----- -- ----,158600.29499977827,158599.5399998501,158150.588,158152.73999981582,158167.196,158617.539,,20,is
screen,html.Screen,1_1_0_1_21,2021-04-02T22:49:33.095Z,,,,,,,,,,,,,,,,53,,,,,,,,,,,,,,485.9059997823788,,response,,,,99,,,,,,,Space,keypress(Space),,,,,,,,---- -- ----- -- ------ - ------- --- ----------<br>------------- ------ ------ ---- ---- ------- ----- -- ----<br>-------- ------- -- paramount. --- - --- ----- ----- ----<br>---- --- --- ----- --- ---- ---- ------- ----- ---- -------<br>--- --- -- ----- -- --- ---- -- --- ---- -- ------ ------<br>--- ----- -- ----,159104.23499997705,159103.44499978237,158600.867,158600.53499997593,158617.539,159117.755,,21,paramount.
screen,html.Screen,1_1_0_1_22,2021-04-02T22:49:33.575Z,,,,,,,,,,,,,,,,53,,,,,,,,,,,,,,465.55499989993405,,response,,,,99,,,,,,,Space,keypress(Space),,,,,,,,---- -- ----- -- ------ - ------- --- ----------<br>------------- ------ ------ ---- ---- ------- ----- -- ----<br>-------- ------- -- ---------- But - --- ----- ----- ----<br>---- --- --- ----- --- ---- ---- ------- ----- ---- -------<br>--- --- -- ----- -- --- ---- -- --- ---- -- ------ ------<br>--- ----- -- ----,159584.0549999848,159583.30999989994,159101.212,159104.4699999038,159117.755,159601.439,,22,But
screen,html.Screen,1_1_0_1_23,2021-04-02T22:49:34.063Z,,,,,,,,,,,,,,,,53,,,,,,,,,,,,,,469.8059999991674,,response,,,,99,,,,,,,Space,keypress(Space),,,,,,,,---- -- ----- -- ------ - ------- --- ----------<br>------------- ------ ------ ---- ---- ------- ----- -- ----<br>-------- ------- -- ---------- --- a --- ----- ----- ----<br>---- --- --- ----- --- ---- ---- ------- ----- ---- -------<br>--- --- -- ----- -- --- ---- -- --- ---- -- ------ ------<br>--- ----- -- ----,160071.88999978825,160071.24499999918,159568.174,159584.2849998735,159601.439,160085.103,,23,a
screen,html.Screen,1_1_0_1_24,2021-04-02T22:49:34.519Z,,,,,,,,,,,,,,,,53,,,,,,,,,,,,,,442.13199992862064,,response,,,,99,,,,,,,Space,keypress(Space),,,,,,,,---- -- ----- -- ------ - ------- --- ----------<br>------------- ------ ------ ---- ---- ------- ----- -- ----<br>-------- ------- -- ---------- --- - new ----- ----- ----<br>---- --- --- ----- --- ---- ---- ------- ----- ---- -------<br>--- --- -- ----- -- --- ---- -- --- ---- -- ------ ------<br>--- ----- -- ----,160527.99999993294,160527.23499992862,160068.458,160072.12999998592,160085.103,160535.331,,24,new
screen,html.Screen,1_1_0_1_25,2021-04-02T22:49:34.983Z,,,,,,,,,,,,,,,,53,,,,,,,,,,,,,,455.8539999334607,,response,,,,99,,,,,,,Space,keypress(Space),,,,,,,,---- -- ----- -- ------ - ------- --- ----------<br>------------- ------ ------ ---- ---- ------- ----- -- ----<br>-------- ------- -- ---------- --- - --- study ----- ----<br>---- --- --- ----- --- ---- ---- ------- ----- ---- -------<br>--- --- -- ----- -- --- ---- -- --- ---- -- ------ ------<br>--- ----- -- ----,160991.9299997855,160991.18499993347,160518.747,160528.22999982163,160535.331,161002.32,,25,study
screen,html.Screen,1_1_0_1_26,2021-04-02T22:49:35.447Z,,,,,,,,,,,,,,,,53,,,,,,,,,,,,,,452.7799999046256,,response,,,,99,,,,,,,Space,keypress(Space),,,,,,,,---- -- ----- -- ------ - ------- --- ----------<br>------------- ------ ------ ---- ---- ------- ----- -- ----<br>-------- ------- -- ---------- --- - --- ----- finds ----<br>---- --- --- ----- --- ---- ---- ------- ----- ---- -------<br>--- --- -- ----- -- --- ---- -- --- ---- -- ------ ------<br>--- ----- -- ----,161455.91499982402,161455.09999990463,160985.768,160992.1649999451,161002.32,161469.412,,26,finds
screen,html.Screen,1_1_0_1_27,2021-04-02T22:49:36.087Z,,,,,,,,,,,,,,,,53,,,,,,,,,,,,,,625.5779998959042,,response,,,,99,,,,,,,Space,keypress(Space),,,,,,,,---- -- ----- -- ------ - ------- --- ----------<br>------------- ------ ------ ---- ---- ------- ----- -- ----<br>-------- ------- -- ---------- --- - --- ----- ----- that<br>---- --- --- ----- --- ---- ---- ------- ----- ---- -------<br>--- --- -- ----- -- --- ---- -- --- ---- -- ------ ------<br>--- ----- -- ----,162095.78499989584,162094.98999989592,161452.742,161456.164999865,161469.412,162103.039,,27,that
screen,html.Screen,1_1_0_1_28,2021-04-02T22:49:36.543Z,,,,,,,,,,,,,,,,53,,,,,,,,,,,,,,447.905999791692,,response,,,,99,,,,,,,Space,keypress(Space),,,,,,,,---- -- ----- -- ------ - ------- --- ----------<br>------------- ------ ------ ---- ---- ------- ----- -- ----<br>-------- ------- -- ---------- --- - --- ----- ----- ----<br>it's --- --- ----- --- ---- ---- ------- ----- ---- -------<br>--- --- -- ----- -- --- ---- -- --- ---- -- ------ ------<br>--- ----- -- ----,162551.664999919,162550.94499979168,162086.487,162096.0499998182,162103.039,162553.42,,28,it's
screen,html.Screen,1_1_0_1_29,2021-04-02T22:49:37.039Z,,,,,,,,,,,,,,,,53,,,,,,,,,,,,,,493.3899999707064,,response,,,,99,,,,,,,Space,keypress(Space),,,,,,,,---- -- ----- -- ------ - ------- --- ----------<br>------------- ------ ------ ---- ---- ------- ----- -- ----<br>-------- ------- -- ---------- --- - --- ----- ----- ----<br>---- not --- ----- --- ---- ---- ------- ----- ---- -------<br>--- --- -- ----- -- --- ---- -- --- ---- -- ------ ------<br>--- ----- -- ----,163048.06499998085,163046.80999997072,162536.74,162551.90499988385,162553.42,163053.779,,29,not
screen,html.Screen,1_1_0_1_30,2021-04-02T22:49:37.519Z,,,,,,,,,,,,,,,,53,,,,,,,,,,,,,,473.00599999455153,,response,,,,99,,,,,,,Space,keypress(Space),,,,,,,,---- -- ----- -- ------ - ------- --- ----------<br>------------- ------ ------ ---- ---- ------- ----- -- ----<br>-------- ------- -- ---------- --- - --- ----- ----- ----<br>---- --- how ----- --- ---- ---- ------- ----- ---- -------<br>--- --- -- ----- -- --- ---- -- --- ---- -- ------ ------<br>--- ----- -- ----,163527.59999991395,163526.78499999456,163037.127,163048.2849997934,163053.779,163537.376,,30,how
screen,html.Screen,1_1_0_1_31,2021-04-02T22:49:37.982Z,,,,,,,,,,,,,,,,53,,,,,,,,,,,,,,453.2139998266357,,response,,,,99,,,,,,,Space,keypress(Space),,,,,,,,---- -- ----- -- ------ - ------- --- ----------<br>------------- ------ ------ ---- ---- ------- ----- -- ----<br>-------- ------- -- ---------- --- - --- ----- ----- ----<br>---- --- --- close --- ---- ---- ------- ----- ---- -------<br>--- --- -- ----- -- --- ---- -- --- ---- -- ------ ------<br>--- ----- -- ----,163991.30499991588,163990.58999982662,163520.773,163527.82999980263,163537.376,164004.266,,31,close
screen,html.Screen,1_1_0_1_32,2021-04-02T22:49:38.470Z,,,,,,,,,,,,,,,,53,,,,,,,,,,,,,,474.30899984092684,,response,,,,99,,,,,,,Space,keypress(Space),,,,,,,,---- -- ----- -- ------ - ------- --- ----------<br>------------- ------ ------ ---- ---- ------- ----- -- ----<br>-------- ------- -- ---------- --- - --- ----- ----- ----<br>---- --- --- ----- you ---- ---- ------- ----- ---- -------<br>--- --- -- ----- -- --- ---- -- --- ---- -- ------ ------<br>--- ----- -- ----,164479.31499988772,164478.57499984093,163987.696,163992.40499990992,164004.266,164487.982,,32,you
screen,html.Screen,1_1_0_1_33,2021-04-02T22:49:38.934Z,,,,,,,,,,,,,,,,53,,,,,,,,,,,,,,454.47799981650314,,response,,,,99,,,,,,,Space,keypress(Space),,,,,,,,---- -- ----- -- ------ - ------- --- ----------<br>------------- ------ ------ ---- ---- ------- ----- -- ----<br>-------- ------- -- ---------- --- - --- ----- ----- ----<br>---- --- --- ----- --- feel ---- ------- ----- ---- -------<br>--- --- -- ----- -- --- ---- -- --- ---- -- ------ ------<br>--- ----- -- ----,164943.24999977835,164942.4599998165,164471.345,164479.54999981448,164487.982,164954.912,,33,feel
screen,html.Screen,1_1_0_1_34,2021-04-02T22:49:39.430Z,,,,,,,,,,,,,,,,53,,,,,,,,,,,,,,483.4829998300411,,response,,,,99,,,,,,,Space,keypress(Space),,,,,,,,---- -- ----- -- ------ - ------- --- ----------<br>------------- ------ ------ ---- ---- ------- ----- -- ----<br>-------- ------- -- ---------- --- - --- ----- ----- ----<br>---- --- --- ----- --- ---- that ------- ----- ---- -------<br>--- --- -- ----- -- --- ---- -- --- ---- -- ------ ------<br>--- ----- -- ----,165439.08999999985,165438.39499983005,164938.316,164943.46499978565,164954.912,165455.306,,34,that
screen,html.Screen,1_1_0_1_35,2021-04-02T22:49:39.934Z,,,,,,,,,,,,,,,,53,,,,,,,,,,,,,,487.1889998501574,,response,,,,99,,,,,,,Space,keypress(Space),,,,,,,,---- -- ----- -- ------ - ------- --- ----------<br>------------- ------ ------ ---- ---- ------- ----- -- ----<br>-------- ------- -- ---------- --- - --- ----- ----- ----<br>---- --- --- ----- --- ---- ---- matters ----- ---- -------<br>--- --- -- ----- -- --- ---- -- --- ---- -- ------ ------<br>--- ----- -- ----,165943.26499989256,165942.49499985017,165438.701,165439.31999988854,165455.306,165955.688,,35,matters
screen,html.Screen,1_1_0_1_36,2021-04-02T22:49:40.414Z,,,,,,,,,,,,,,,,53,,,,,,,,,,,,,,466.6369999340677,,response,,,,99,,,,,,,Space,keypress(Space),,,,,,,,"---- -- ----- -- ------ - ------- --- ----------<br>------------- ------ ------ ---- ---- ------- ----- -- ----<br>-------- ------- -- ---------- --- - --- ----- ----- ----<br>---- --- --- ----- --- ---- ---- ------- most, ---- -------<br>--- --- -- ----- -- --- ---- -- --- ---- -- ------ ------<br>--- ----- -- ----",166423.13499981537,166422.32499993406,165938.976,165943.49499978125,165955.688,166439.337,,36,"most,"
screen,html.Screen,1_1_0_1_37,2021-04-02T22:49:40.878Z,,,,,,,,,,,,,,,,53,,,,,,,,,,,,,,446.9229998246883,,response,,,,99,,,,,,,Space,keypress(Space),,,,,,,,---- -- ----- -- ------ - ------- --- ----------<br>------------- ------ ------ ---- ---- ------- ----- -- ----<br>-------- ------- -- ---------- --- - --- ----- ----- ----<br>---- --- --- ----- --- ---- ---- ------- ----- it's -------<br>--- --- -- ----- -- --- ---- -- --- ---- -- ------ ------<br>--- ----- -- ----,166887.03499990515,166886.2599998247,166422.673,166423.3749997802,166439.337,166889.598,,37,it's
screen,html.Screen,1_1_0_1_38,2021-04-02T22:49:41.358Z,,,,,,,,,,,,,,,,53,,,,,,,,,,,,,,476.5819998953957,,response,,,,99,,,,,,,Space,keypress(Space),,,,,,,,---- -- ----- -- ------ - ------- --- ----------<br>------------- ------ ------ ---- ---- ------- ----- -- ----<br>-------- ------- -- ---------- --- - --- ----- ----- ----<br>---- --- --- ----- --- ---- ---- ------- ----- ---- whether<br>--- --- -- ----- -- --- ---- -- --- ---- -- ------ ------<br>--- ----- -- ----,167366.96499981917,167366.1799998954,166872.965,166887.26499979384,166889.598,167373.196,,38,whether
screen,html.Screen,1_1_0_1_39,2021-04-02T22:49:41.863Z,,,,,,,,,,,,,,,,53,,,,,,,,,,,,,,497.8189999242313,,response,,,,99,,,,,,,Space,keypress(Space),,,,,,,,---- -- ----- -- ------ - ------- --- ----------<br>------------- ------ ------ ---- ---- ------- ----- -- ----<br>-------- ------- -- ---------- --- - --- ----- ----- ----<br>---- --- --- ----- --- ---- ---- ------- ----- ---- -------<br>you --- -- ----- -- --- ---- -- --- ---- -- ------ ------<br>--- ----- -- ----,167872.05499992706,167871.01499992423,167356.62,167367.18499986455,167373.196,167900.424,,39,you
screen,html.Screen,1_1_0_1_40,2021-04-02T22:49:42.366Z,,,,,,,,,,,,,,,,53,,,,,,,,,,,,,,473.68099993711803,,response,,,,99,,,,,,,Space,keypress(Space),,,,,,,,---- -- ----- -- ------ - ------- --- ----------<br>------------- ------ ------ ---- ---- ------- ----- -- ----<br>-------- ------- -- ---------- --- - --- ----- ----- ----<br>---- --- --- ----- --- ---- ---- ------- ----- ---- -------<br>--- are -- ----- -- --- ---- -- --- ---- -- ------ ------<br>--- ----- -- ----,168374.86499990337,168374.10499993712,167856.912,167872.26999993436,167900.424,168390.621,,40,are
screen,html.Screen,1_1_0_1_41,2021-04-02T22:49:42.830Z,,,,,,,,,,,,,,,,53,,,,,,,,,,,,,,447.28399996392545,,response,,,,99,,,,,,,Space,keypress(Space),,,,,,,,---- -- ----- -- ------ - ------- --- ----------<br>------------- ------ ------ ---- ---- ------- ----- -- ----<br>-------- ------- -- ---------- --- - --- ----- ----- ----<br>---- --- --- ----- --- ---- ---- ------- ----- ---- -------<br>--- --- as ----- -- --- ---- -- --- ---- -- ------ ------<br>--- ----- -- ----,168838.6649999302,168837.90499996394,168373.945,168375.0749998726,168390.621,168840.876,,41,as
screen,html.Screen,1_1_0_1_42,2021-04-02T22:49:43.366Z,,,,,,,,,,,,,,,,53,,,,,,,,,,,,,,533.0239997731405,,response,,,,99,,,,,,,Space,keypress(Space),,,,,,,,---- -- ----- -- ------ - ------- --- ----------<br>------------- ------ ------ ---- ---- ------- ----- -- ----<br>-------- ------- -- ---------- --- - --- ----- ----- ----<br>---- --- --- ----- --- ---- ---- ------- ----- ---- -------<br>--- --- -- close -- --- ---- -- --- ---- -- ------ ------<br>--- ----- -- ----,169374.6899999678,169373.89999977313,168824.198,168838.87499989942,168840.876,169391.221,,42,close
screen,html.Screen,1_1_0_1_43,2021-04-02T22:49:43.862Z,,,,,,,,,,,,,,,,53,,,,,,,,,,,,,,478.83399983207346,,response,,,,99,,,,,,,Space,keypress(Space),,,,,,,,---- -- ----- -- ------ - ------- --- ----------<br>------------- ------ ------ ---- ---- ------- ----- -- ----<br>-------- ------- -- ---------- --- - --- ----- ----- ----<br>---- --- --- ----- --- ---- ---- ------- ----- ---- -------<br>--- --- -- ----- as --- ---- -- --- ---- -- ------ ------<br>--- ----- -- ----,169870.76499988325,169870.05499983206,169374.621,169374.89999993704,169391.221,169874.794,,43,as
screen,html.Screen,1_1_0_1_44,2021-04-02T22:49:44.374Z,,,,,,,,,,,,,,,,53,,,,,,,,,,,,,,506.9909999759402,,response,,,,99,,,,,,,Space,keypress(Space),,,,,,,,---- -- ----- -- ------ - ------- --- ----------<br>------------- ------ ------ ---- ---- ------- ----- -- ----<br>-------- ------- -- ---------- --- - --- ----- ----- ----<br>---- --- --- ----- --- ---- ---- ------- ----- ---- -------<br>--- --- -- ----- -- you ---- -- --- ---- -- ------ ------<br>--- ----- -- ----,170382.6149997767,170381.78499997593,169858.275,169870.97499985248,169874.794,170391.777,,44,you
screen,html.Screen,1_1_0_1_45,2021-04-02T22:49:44.918Z,,,,,,,,,,,,,,,,53,,,,,,,,,,,,,,533.8329998019617,,response,,,,99,,,,,,,Space,keypress(Space),,,,,,,,---- -- ----- -- ------ - ------- --- ----------<br>------------- ------ ------ ---- ---- ------- ----- -- ----<br>-------- ------- -- ---------- --- - --- ----- ----- ----<br>---- --- --- ----- --- ---- ---- ------- ----- ---- -------<br>--- --- -- ----- -- --- want -- --- ---- -- ------ ------<br>--- ----- -- ----,170926.4049998019,170925.60999980196,170375.285,170382.83499982208,170391.777,170942.305,,45,want
screen,html.Screen,1_1_0_1_46,2021-04-02T22:49:45.390Z,,,,,,,,,,,,,,,,53,,,,,,,,,,,,,,455.24499987781746,,response,,,,99,,,,,,,Space,keypress(Space),,,,,,,,---- -- ----- -- ------ - ------- --- ----------<br>------------- ------ ------ ---- ---- ------- ----- -- ----<br>-------- ------- -- ---------- --- - --- ----- ----- ----<br>---- --- --- ----- --- ---- ---- ------- ----- ---- -------<br>--- --- -- ----- -- --- ---- to --- ---- -- ------ ------<br>--- ----- -- ----,171398.38499994949,171397.5499998778,170925.64,170926.62499984726,170942.305,171409.206,,46,to
screen,html.Screen,1_1_0_1_47,2021-04-02T22:49:45.893Z,,,,,,,,,,,,,,,,53,,,,,,,,,,,,,,492.33399999164976,,response,,,,99,,,,,,,Space,keypress(Space),,,,,,,,"---- -- ----- -- ------ - ------- --- ----------<br>------------- ------ ------ ---- ---- ------- ----- -- ----<br>-------- ------- -- ---------- --- - --- ----- ----- ----<br>---- --- --- ----- --- ---- ---- ------- ----- ---- -------<br>--- --- -- ----- -- --- ---- -- be, ---- -- ------ ------<br>--- ----- -- ----",171902.34999987297,171901.53999999166,171392.61,171398.61499983817,171409.206,171909.479,,47,"be,"
screen,html.Screen,1_1_0_1_48,2021-04-02T22:49:46.605Z,,,,,,,,,,,,,,,,53,,,,,,,,,,,,,,703.8309999278863,,response,,,,99,,,,,,,Space,keypress(Space),,,,,,,,---- -- ----- -- ------ - ------- --- ----------<br>------------- ------ ------ ---- ---- ------- ----- -- ----<br>-------- ------- -- ---------- --- - --- ----- ----- ----<br>---- --- --- ----- --- ---- ---- ------- ----- ---- -------<br>--- --- -- ----- -- --- ---- -- --- even -- ------ ------<br>--- ----- -- ----,172614.02999982238,172613.30999992788,171892.94,171902.56999991834,171909.479,172626.67,,48,even
screen,html.Screen,1_1_0_1_49,2021-04-02T22:49:47.085Z,,,,,,,,,,,,,,,,53,,,,,,,,,,,,,,466.5699998418859,,response,,,,99,,,,,,,Space,keypress(Space),,,,,,,,---- -- ----- -- ------ - ------- --- ----------<br>------------- ------ ------ ---- ---- ------- ----- -- ----<br>-------- ------- -- ---------- --- - --- ----- ----- ----<br>---- --- --- ----- --- ---- ---- ------- ----- ---- -------<br>--- --- -- ----- -- --- ---- -- --- ---- if ------ ------<br>--- ----- -- ----,173093.93999981694,173093.2399998419,172610.105,172614.24499982968,172626.67,173110.378,,49,if
screen,html.Screen,1_1_0_1_50,2021-04-02T22:49:47.525Z,,,,,,,,,,,,,,,,53,,,,,,,,,,,,,,422.87699990023975,,response,,,,99,,,,,,,Space,keypress(Space),,,,,,,,---- -- ----- -- ------ - ------- --- ----------<br>------------- ------ ------ ---- ---- ------- ----- -- ----<br>-------- ------- -- ---------- --- - --- ----- ----- ----<br>---- --- --- ----- --- ---- ---- ------- ----- ---- -------<br>--- --- -- ----- -- --- ---- -- --- ---- -- that's ------<br>--- ----- -- ----,173533.9099999983,173533.25499990024,173093.72,173094.15499982424,173110.378,173543.935,,50,that's
screen,html.Screen,1_1_0_1_51,2021-04-02T22:49:48.013Z,,,,,,,,,,,,,,,,53,,,,,,,,,,,,,,477.1799998940551,,response,,,,99,,,,,,,Space,keypress(Space),,,,,,,,---- -- ----- -- ------ - ------- --- ----------<br>------------- ------ ------ ---- ---- ------- ----- -- ----<br>-------- ------- -- ---------- --- - --- ----- ----- ----<br>---- --- --- ----- --- ---- ---- ------- ----- ---- -------<br>--- --- -- ----- -- --- ---- -- --- ---- -- ------ really<br>--- ----- -- ----,174021.79499994963,174021.11499989405,173527.329,173534.11999996752,173543.935,174027.514,,51,really
screen,html.Screen,1_1_0_1_52,2021-04-02T22:49:48.533Z,,,,,,,,,,,,,,,,53,,,,,,,,,,,,,,513.5059998877987,,response,,,,99,,,,,,,Space,keypress(Space),,,,,,,,---- -- ----- -- ------ - ------- --- ----------<br>------------- ------ ------ ---- ---- ------- ----- -- ----<br>-------- ------- -- ---------- --- - --- ----- ----- ----<br>---- --- --- ----- --- ---- ---- ------- ----- ---- -------<br>--- --- -- ----- -- --- ---- -- --- ---- -- ------ ------<br>not ----- -- ----,174541.75999993458,174541.0199998878,174010.989,174022.00499991886,174027.514,174544.635,,52,not
screen,html.Screen,1_1_0_1_53,2021-04-02T22:49:49.021Z,,,,,,,,,,,,,,,,53,,,,,,,,,,,,,,484.39499985962175,,response,,,,99,,,,,,,Space,keypress(Space),,,,,,,,---- -- ----- -- ------ - ------- --- ----------<br>------------- ------ ------ ---- ---- ------- ----- -- ----<br>-------- ------- -- ---------- --- - --- ----- ----- ----<br>---- --- --- ----- --- ---- ---- ------- ----- ---- -------<br>--- --- -- ----- -- --- ---- -- --- ---- -- ------ ------<br>--- close -- ----,175029.85499985516,175029.02999985963,174527.998,174542.04999981448,174544.635,175044.988,,53,close
screen,html.Screen,1_1_0_1_54,2021-04-02T22:49:49.653Z,,,,,,,,,,,,,,,,53,,,,,,,,,,,,,,615.9619999321876,,response,,,,99,,,,,,,Space,keypress(Space),,,,,,,,---- -- ----- -- ------ - ------- --- ----------<br>------------- ------ ------ ---- ---- ------- ----- -- ----<br>-------- ------- -- ---------- --- - --- ----- ----- ----<br>---- --- --- ----- --- ---- ---- ------- ----- ---- -------<br>--- --- -- ----- -- --- ---- -- --- ---- -- ------ ------<br>--- ----- at ----,175661.7599998135,175660.9499999322,175028.33,175030.0799999386,175044.988,175678.74,,54,at
screen,html.Screen,1_1_0_1_55,2021-04-02T22:49:50.485Z,,,,,,,,,,,,,,,,53,,,,,,,,,,,,,,814.0449997766409,,response,,,,99,,,,,,,Space,keypress(Space),,,,,,,,---- -- ----- -- ------ - ------- --- ----------<br>------------- ------ ------ ---- ---- ------- ----- -- ----<br>-------- ------- -- ---------- --- - --- ----- ----- ----<br>---- --- --- ----- --- ---- ---- ------- ----- ---- -------<br>--- --- -- ----- -- --- ---- -- --- ---- -- ------ ------<br>--- ----- -- all.,176493.56999993324,176492.78499977663,175662.094,175661.9649999775,175678.74,176519.534,,55,all.
Item 99,flow.Loop,1_1_0_1,2021-04-02T22:49:50.485Z,,,,,,,,,,,,,,,,,,,,,,,,,,,,,,30466.95099977663,,completion,,,,,A,,,,,,,,,,,silence,,,,,176494.00499998592,176492.78499977663,146009.216,146010.18999982625,146025.834,176519.534,,,
Question 1,html.Screen,1_1_0_2,2021-04-02T22:50:00.980Z,,,,,,,,,,,,,,,,,,,,,,,,,,,true,FALSE,,10468.560999920563,,response,,,,99,A,,,,,,FALSE,click #choice-2,,,,silence,,,,,186989.26499998197,186988.09499992058,176479.326,176494.20999991708,176519.534,187002.751,,,
Question 2,html.Screen,1_1_0_3,2021-04-02T22:50:05.843Z,,,,,,,,,,,,,,,,,,,,,,,,,,,true,TRUE,,4848.59899989533,,response,,,,99,A,,,,,,TRUE,click #choice-1,,,,silence,,,,,191852.35499986447,191851.34999989532,186986.125,186989.55999989994,187002.751,191855.939,,,
Item 99,flow.Sequence,1_1_0,2021-04-02T22:50:05.843Z,,,,,,,,,,,,,,,,,,,,,,,,,,,,,,55832.007999895315,,completion,,,,,,,,,,,,,,,,,,,,,191852.7049999684,191851.34999989532,136002.633,136010.3249999229,136019.342,191855.939,,,
Holding screen,html.Screen,1_1_1_0,2021-04-02T22:50:15.837Z,,,,,,,,,,,,,,,,,,,,,,,,,,,,,,10006.647999999986,,timeout,,,,,,,,,,,,,,,,,,,,,201846.61499992944,201845.869,191839.311,191852.93999989517,191855.939,201862.587,,,
screen,html.Screen,1_1_1_1_0,2021-04-02T22:50:16.465Z,,,,,,,,,,,,,,,,54,,,,,,,,,,,,,,610.7629998692428,,response,,,,100,,,,,,,Space,keypress(Space),,,,,,,,At --- ---- --- ------ ----- ------- ---- -- --- ------- --<br>------- ---------- ------ -- ----- -- ----- -- ---- ------<br>--- ----- --- --- ------ -------- ----- --- ------ ----- --<br>----- ----- ---------- --- --- ------ ------ ---- -- ------<br>------- --- ------ ----- --- ---- ------- -- ---- --- --<br>------- ------,202474.1699998267,202473.34999986924,201845.869,201846.9000000041,201862.587,202479.622,,0,At
screen,html.Screen,1_1_1_1_1,2021-04-02T22:50:16.920Z,,,,,,,,,,,,,,,,54,,,,,,,,,,,,,,449.087999890995,,response,,,,100,,,,,,,Space,keypress(Space),,,,,,,,-- the ---- --- ------ ----- ------- ---- -- --- ------- --<br>------- ---------- ------ -- ----- -- ----- -- ---- ------<br>--- ----- --- --- ------ -------- ----- --- ------ ----- --<br>----- ----- ---------- --- --- ------ ------ ---- -- ------<br>------- --- ------ ----- --- ---- ------- -- ---- --- --<br>------- ------,202929.50499989092,202928.709999891,202463.021,202474.4049999863,202479.622,202946.589,,1,the
screen,html.Screen,1_1_1_1_2,2021-04-02T22:50:17.352Z,,,,,,,,,,,,,,,,54,,,,,,,,,,,,,,414.0359999720531,,response,,,,100,,,,,,,Space,keypress(Space),,,,,,,,-- --- time --- ------ ----- ------- ---- -- --- ------- --<br>------- ---------- ------ -- ----- -- ----- -- ---- ------<br>--- ----- --- --- ------ -------- ----- --- ------ ----- --<br>----- ----- ---------- --- --- ------ ------ ---- -- ------<br>------- --- ------ ----- --- ---- ------- -- ---- --- --<br>------- ------,203361.37499986216,203360.62499997206,202929.972,202929.72999997437,202946.589,203363.534,,2,time
screen,html.Screen,1_1_1_1_3,2021-04-02T22:50:17.792Z,,,,,,,,,,,,,,,,54,,,,,,,,,,,,,,436.96599989567767,,response,,,,100,,,,,,,Space,keypress(Space),,,,,,,,-- --- ---- the ------ ----- ------- ---- -- --- ------- --<br>------- ---------- ------ -- ----- -- ----- -- ---- ------<br>--- ----- --- --- ------ -------- ----- --- ------ ----- --<br>----- ----- ---------- --- --- ------ ------ ---- -- ------<br>------- --- ------ ----- --- ---- ------- -- ---- --- --<br>------- ------,203801.28499981947,203800.4999998957,203346.918,203361.5849998314,203363.534,203813.822,,3,the
screen,html.Screen,1_1_1_1_4,2021-04-02T22:50:18.256Z,,,,,,,,,,,,,,,,54,,,,,,,,,,,,,,450.64299978193594,,response,,,,100,,,,,,,Space,keypress(Space),,,,,,,,-- --- ---- --- French ----- ------- ---- -- --- ------- --<br>------- ---------- ------ -- ----- -- ----- -- ---- ------<br>--- ----- --- --- ------ -------- ----- --- ------ ----- --<br>----- ----- ---------- --- --- ------ ------ ---- -- ------<br>------- --- ------ ----- --- ---- ------- -- ---- --- --<br>------- ------,204265.20999986678,204264.46499978192,203797.208,203801.49999982677,203813.822,204280.844,,4,French
screen,html.Screen,1_1_1_1_5,2021-04-02T22:50:18.696Z,,,,,,,,,,,,,,,,54,,,,,,,,,,,,,,423.5859999251843,,response,,,,100,,,,,,,Space,keypress(Space),,,,,,,,-- --- ---- --- ------ crown ------- ---- -- --- ------- --<br>------- ---------- ------ -- ----- -- ----- -- ---- ------<br>--- ----- --- --- ------ -------- ----- --- ------ ----- --<br>----- ----- ---------- --- --- ------ ------ ---- -- ------<br>------- --- ------ ----- --- ---- ------- -- ---- --- --<br>------- ------,204705.1799998153,204704.4299999252,204264.188,204265.42499987409,204280.844,204714.399,,5,crown
screen,html.Screen,1_1_1_1_6,2021-04-02T22:50:19.152Z,,,,,,,,,,,,,,,,54,,,,,,,,,,,,,,445.97599997764337,,response,,,,100,,,,,,,Space,keypress(Space),,,,,,,,-- --- ---- --- ------ ----- secured ---- -- --- ------- --<br>------- ---------- ------ -- ----- -- ----- -- ---- ------<br>--- ----- --- --- ------ -------- ----- --- ------ ----- --<br>----- ----- ---------- --- --- ------ ------ ---- -- ------<br>------- --- ------ ----- --- ---- ------- -- ---- --- --<br>------- ------,205161.1949999351,205160.37499997765,204697.775,204705.38999978453,204714.399,205164.726,,6,secured
screen,html.Screen,1_1_1_1_7,2021-04-02T22:50:19.655Z,,,,,,,,,,,,,,,,54,,,,,,,,,,,,,,499.5489998718549,,response,,,,100,,,,,,,Space,keypress(Space),,,,,,,,-- --- ---- --- ------ ----- ------- much -- --- ------- --<br>------- ---------- ------ -- ----- -- ----- -- ---- ------<br>--- ----- --- --- ------ -------- ----- --- ------ ----- --<br>----- ----- ---------- --- --- ------ ------ ---- -- ------<br>------- --- ------ ----- --- ---- ------- -- ---- --- --<br>------- ------,205665.10499990545,205664.27499987185,205148.089,205161.39999986626,205164.726,205681.772,,7,much
screen,html.Screen,1_1_1_1_8,2021-04-02T22:50:20.111Z,,,,,,,,,,,,,,,,54,,,,,,,,,,,,,,438.41299989062827,,response,,,,100,,,,,,,Space,keypress(Space),,,,,,,,-- --- ---- --- ------ ----- ------- ---- of --- ------- --<br>------- ---------- ------ -- ----- -- ----- -- ---- ------<br>--- ----- --- --- ------ -------- ----- --- ------ ----- --<br>----- ----- ---------- --- --- ------ ------ ---- -- ------<br>------- --- ------ ----- --- ---- ------- -- ---- --- --<br>------- ------,206120.849999832,206120.18499989063,205665.104,205665.33499979414,205681.772,206131.898,,8,of
screen,html.Screen,1_1_1_1_9,2021-04-02T22:50:20.583Z,,,,,,,,,,,,,,,,54,,,,,,,,,,,,,,460.1469998229877,,response,,,,100,,,,,,,Space,keypress(Space),,,,,,,,-- --- ---- --- ------ ----- ------- ---- -- its ------- --<br>------- ---------- ------ -- ----- -- ----- -- ---- ------<br>--- ----- --- --- ------ -------- ----- --- ------ ----- --<br>----- ----- ---------- --- --- ------ ------ ---- -- ------<br>------- --- ------ ----- --- ---- ------- -- ---- --- --<br>------- ------,206592.73999999277,206592.04499982297,206115.399,206121.0499999579,206131.898,206598.858,,9,its
screen,html.Screen,1_1_1_1_10,2021-04-02T22:50:21.111Z,,,,,,,,,,,,,,,,54,,,,,,,,,,,,,,521.1269999975339,,response,,,,100,,,,,,,Space,keypress(Space),,,,,,,,-- --- ---- --- ------ ----- ------- ---- -- --- revenue --<br>------- ---------- ------ -- ----- -- ----- -- ---- ------<br>--- ----- --- --- ------ -------- ----- --- ------ ----- --<br>----- ----- ---------- --- --- ------ ------ ---- -- ------<br>------- --- ------ ----- --- ---- ------- -- ---- --- --<br>------- ------,207120.66999985836,207119.98499999754,206582.365,206592.949999962,206598.858,207132.595,,10,revenue
screen,html.Screen,1_1_1_1_11,2021-04-02T22:50:21.575Z,,,,,,,,,,,,,,,,54,,,,,,,,,,,,,,451.3299999262381,,response,,,,100,,,,,,,Space,keypress(Space),,,,,,,,-- --- ---- --- ------ ----- ------- ---- -- --- ------- by<br>------- ---------- ------ -- ----- -- ----- -- ---- ------<br>--- ----- --- --- ------ -------- ----- --- ------ ----- --<br>----- ----- ---------- --- --- ------ ------ ---- -- ------<br>------- --- ------ ----- --- ---- ------- -- ---- --- --<br>------- ------,207584.60499998182,207583.92499992624,207116.021,207120.8799998276,207132.595,207599.629,,11,by
screen,html.Screen,1_1_1_1_12,2021-04-02T22:50:22.047Z,,,,,,,,,,,,,,,,54,,,,,,,,,,,,,,456.22599992595497,,response,,,,100,,,,,,,Space,keypress(Space),,,,,,,,-- --- ---- --- ------ ----- ------- ---- -- --- ------- --<br>issuing ---------- ------ -- ----- -- ----- -- ---- ------<br>--- ----- --- --- ------ -------- ----- --- ------ ----- --<br>----- ----- ---------- --- --- ------ ------ ---- -- ------<br>------- --- ------ ----- --- ---- ------- -- ---- --- --<br>------- ------,208056.56499997713,208055.85499992594,207582.978,207584.81499995105,207599.629,208066.502,,12,issuing
screen,html.Screen,1_1_1_1_13,2021-04-02T22:50:22.487Z,,,,,,,,,,,,,,,,54,,,,,,,,,,,,,,429.33799998866743,,response,,,,100,,,,,,,Space,keypress(Space),,,,,,,,-- --- ---- --- ------ ----- ------- ---- -- --- ------- --<br>------- government ------ -- ----- -- ----- -- ---- ------<br>--- ----- --- --- ------ -------- ----- --- ------ ----- --<br>----- ----- ---------- --- --- ------ ------ ---- -- ------<br>------- --- ------ ----- --- ---- ------- -- ---- --- --<br>------- ------,208496.60999979824,208495.83999998868,208049.953,208056.77499994636,208066.502,208500.247,,13,government
screen,html.Screen,1_1_1_1_14,2021-04-02T22:50:23.207Z,,,,,,,,,,,,,,,,54,,,,,,,,,,,,,,715.492999897775,,response,,,,100,,,,,,,Space,keypress(Space),,,,,,,,-- --- ---- --- ------ ----- ------- ---- -- --- ------- --<br>------- ---------- bonds. -- ----- -- ----- -- ---- ------<br>--- ----- --- --- ------ -------- ----- --- ------ ----- --<br>----- ----- ---------- --- --- ------ ------ ---- -- ------<br>------- --- ------ ----- --- ---- ------- -- ---- --- --<br>------- ------,209216.54499997385,209215.73999989778,208483.609,208496.83499988168,208500.247,209234.066,,14,bonds.
screen,html.Screen,1_1_1_1_15,2021-04-02T22:50:23.815Z,,,,,,,,,,,,,,,,54,,,,,,,,,,,,,,589.5989997998113,,response,,,,100,,,,,,,Space,keypress(Space),,,,,,,,-- --- ---- --- ------ ----- ------- ---- -- --- ------- --<br>------- ---------- ------ In ----- -- ----- -- ---- ------<br>--- ----- --- --- ------ -------- ----- --- ------ ----- --<br>----- ----- ---------- --- --- ------ ------ ---- -- ------<br>------- --- ------ ----- --- ---- ------- -- ---- --- --<br>------- ------,209824.44499991834,209823.6649997998,209200.793,209216.7649997864,209234.066,209834.325,,15,In
screen,html.Screen,1_1_1_1_16,2021-04-02T22:50:24.335Z,,,,,,,,,,,,,,,,54,,,,,,,,,,,,,,509.22499987407355,,response,,,,100,,,,,,,Space,keypress(Space),,,,,,,,"-- --- ---- --- ------ ----- ------- ---- -- --- ------- --<br>------- ---------- ------ -- 1727, -- ----- -- ---- ------<br>--- ----- --- --- ------ -------- ----- --- ------ ----- --<br>----- ----- ---------- --- --- ------ ------ ---- -- ------<br>------- --- ------ ----- --- ---- ------- -- ---- --- --<br>------- ------",210344.30499980226,210343.54999987409,209817.847,209824.66499996372,209834.325,210351.291,,16,"1727,"
screen,html.Screen,1_1_1_1_17,2021-04-02T22:50:24.863Z,,,,,,,,,,,,,,,,54,,,,,,,,,,,,,,520.1889999725099,,response,,,,100,,,,,,,Space,keypress(Space),,,,,,,,-- --- ---- --- ------ ----- ------- ---- -- --- ------- --<br>------- ---------- ------ -- ----- in ----- -- ---- ------<br>--- ----- --- --- ------ -------- ----- --- ------ ----- --<br>----- ----- ---------- --- --- ------ ------ ---- -- ------<br>------- --- ------ ----- --- ---- ------- -- ---- --- --<br>------- ------,210872.31499981135,210871.4799999725,210334.836,210344.51999980956,210351.291,210885.139,,17,in
screen,html.Screen,1_1_1_1_18,2021-04-02T22:50:25.318Z,,,,,,,,,,,,,,,,54,,,,,,,,,,,,,,442.23599987706984,,response,,,,100,,,,,,,Space,keypress(Space),,,,,,,,-- --- ---- --- ------ ----- ------- ---- -- --- ------- --<br>------- ---------- ------ -- ----- -- order -- ---- ------<br>--- ----- --- --- ------ -------- ----- --- ------ ----- --<br>----- ----- ---------- --- --- ------ ------ ---- -- ------<br>------- --- ------ ----- --- ---- ------- -- ---- --- --<br>------- ------,211328.11999996193,211327.37499987707,210868.528,210872.53499985673,210885.139,211335.341,,18,order
screen,html.Screen,1_1_1_1_19,2021-04-02T22:50:25.759Z,,,,,,,,,,,,,,,,54,,,,,,,,,,,,,,432.03899985927274,,response,,,,100,,,,,,,Space,keypress(Space),,,,,,,,-- --- ---- --- ------ ----- ------- ---- -- --- ------- --<br>------- ---------- ------ -- ----- -- ----- to ---- ------<br>--- ----- --- --- ------ -------- ----- --- ------ ----- --<br>----- ----- ---------- --- --- ------ ------ ---- -- ------<br>------- --- ------ ----- --- ---- ------- -- ---- --- --<br>------- ------,211768.21499993093,211767.37999985926,211318.808,211328.33499996923,211335.341,211785.739,,19,to
screen,html.Screen,1_1_1_1_20,2021-04-02T22:50:26.238Z,,,,,,,,,,,,,,,,54,,,,,,,,,,,,,,461.50099993875483,,response,,,,100,,,,,,,Space,keypress(Space),,,,,,,,-- --- ---- --- ------ ----- ------- ---- -- --- ------- --<br>------- ---------- ------ -- ----- -- ----- -- save ------<br>--- ----- --- --- ------ -------- ----- --- ------ ----- --<br>----- ----- ---------- --- --- ------ ------ ---- -- ------<br>------- --- ------ ----- --- ---- ------- -- ---- --- --<br>------- ------,212247.99499986693,212247.23999993876,211752.422,211768.43999978155,211785.739,212252.704,,20,save
screen,html.Screen,1_1_1_1_21,2021-04-02T22:50:26.799Z,,,,,,,,,,,,,,,,54,,,,,,,,,,,,,,554.9209998994193,,response,,,,100,,,,,,,Space,keypress(Space),,,,,,,,"-- --- ---- --- ------ ----- ------- ---- -- --- ------- --<br>------- ---------- ------ -- ----- -- ----- -- ---- money,<br>--- ----- --- --- ------ -------- ----- --- ------ ----- --<br>----- ----- ---------- --- --- ------ ------ ---- -- ------<br>------- --- ------ ----- --- ---- ------- -- ---- --- --<br>------- ------",212808.39999997988,212807.62499989942,212236.079,212248.20499983616,212252.704,212819.641,,21,"money,"
screen,html.Screen,1_1_1_1_22,2021-04-02T22:50:27.310Z,,,,,,,,,,,,,,,,54,,,,,,,,,,,,,,499.4789998836932,,response,,,,100,,,,,,,Space,keypress(Space),,,,,,,,-- --- ---- --- ------ ----- ------- ---- -- --- ------- --<br>------- ---------- ------ -- ----- -- ----- -- ---- ------<br>the ----- --- --- ------ -------- ----- --- ------ ----- --<br>----- ----- ---------- --- --- ------ ------ ---- -- ------<br>------- --- ------ ----- --- ---- ------- -- ---- --- --<br>------- ------,213319.93999984115,213319.1199998837,212803.078,212808.63999994472,212819.641,213336.743,,22,the
screen,html.Screen,1_1_1_1_23,2021-04-02T22:50:27.886Z,,,,,,,,,,,,,,,,54,,,,,,,,,,,,,,558.3019998956297,,response,,,,100,,,,,,,Space,keypress(Space),,,,,,,,-- --- ---- --- ------ ----- ------- ---- -- --- ------- --<br>------- ---------- ------ -- ----- -- ----- -- ---- ------<br>--- state --- --- ------ -------- ----- --- ------ ----- --<br>----- ----- ---------- --- --- ------ ------ ---- -- ------<br>------- --- ------ ----- --- ---- ------- -- ---- --- --<br>------- ------,213895.88499977253,213895.04499989562,213320.093,213320.14999981038,213336.743,213903.771,,23,state
screen,html.Screen,1_1_1_1_24,2021-04-02T22:50:28.646Z,,,,,,,,,,,,,,,,54,,,,,,,,,,,,,,751.0639999356936,,response,,,,100,,,,,,,Space,keypress(Space),,,,,,,,-- --- ---- --- ------ ----- ------- ---- -- --- ------- --<br>------- ---------- ------ -- ----- -- ----- -- ---- ------<br>--- ----- cut --- ------ -------- ----- --- ------ ----- --<br>----- ----- ---------- --- --- ------ ------ ---- -- ------<br>------- --- ------ ----- --- ---- ------- -- ---- --- --<br>------- ------,214655.5849998258,214654.8349999357,213887.178,213896.11499989405,213903.771,214670.941,,24,cut
screen,html.Screen,1_1_1_1_25,2021-04-02T22:50:29.222Z,,,,,,,,,,,,,,,,54,,,,,,,,,,,,,,559.7439998422051,,response,,,,100,,,,,,,Space,keypress(Space),,,,,,,,-- --- ---- --- ------ ----- ------- ---- -- --- ------- --<br>------- ---------- ------ -- ----- -- ----- -- ---- ------<br>--- ----- --- the ------ -------- ----- --- ------ ----- --<br>----- ----- ---------- --- --- ------ ------ ---- -- ------<br>------- --- ------ ----- --- ---- ------- -- ---- --- --<br>------- ------,215231.37499997392,215230.6849998422,214654.381,214655.79499979503,214670.941,215238.007,,25,the
screen,html.Screen,1_1_1_1_26,2021-04-02T22:50:29.774Z,,,,,,,,,,,,,,,,54,,,,,,,,,,,,,,544.6329998739238,,response,,,,100,,,,,,,Space,keypress(Space),,,,,,,,-- --- ---- --- ------ ----- ------- ---- -- --- ------- --<br>------- ---------- ------ -- ----- -- ----- -- ---- ------<br>--- ----- --- --- bonds' -------- ----- --- ------ ----- --<br>----- ----- ---------- --- --- ------ ------ ---- -- ------<br>------- --- ------ ----- --- ---- ------- -- ---- --- --<br>------- ------,215783.3249999676,215782.63999987394,215221.387,215231.57999990508,215238.007,215788.268,,26,bonds'
screen,html.Screen,1_1_1_1_27,2021-04-02T22:50:30.262Z,,,,,,,,,,,,,,,,54,,,,,,,,,,,,,,482.2369999058137,,response,,,,100,,,,,,,Space,keypress(Space),,,,,,,,-- --- ---- --- ------ ----- ------- ---- -- --- ------- --<br>------- ---------- ------ -- ----- -- ----- -- ---- ------<br>--- ----- --- --- ------ interest ----- --- ------ ----- --<br>----- ----- ---------- --- --- ------ ------ ---- -- ------<br>------- --- ------ ----- --- ---- ------- -- ---- --- --<br>------- ------,216271.1349998135,216270.50499990582,215771.7,215783.52499986067,215788.268,216288.693,,27,interest
screen,html.Screen,1_1_1_1_28,2021-04-02T22:50:30.854Z,,,,,,,,,,,,,,,,54,,,,,,,,,,,,,,573.8519999235577,,response,,,,100,,,,,,,Space,keypress(Space),,,,,,,,-- --- ---- --- ------ ----- ------- ---- -- --- ------- --<br>------- ---------- ------ -- ----- -- ----- -- ---- ------<br>--- ----- --- --- ------ -------- rate. --- ------ ----- --<br>----- ----- ---------- --- --- ------ ------ ---- -- ------<br>------- --- ------ ----- --- ---- ------- -- ---- --- --<br>------- ------,216863.35999984294,216862.54499992356,216255.384,216271.3549998589,216288.693,216872.334,,28,rate.
screen,html.Screen,1_1_1_1_29,2021-04-02T22:50:31.374Z,,,,,,,,,,,,,,,,54,,,,,,,,,,,,,,510.0909999597643,,response,,,,100,,,,,,,Space,keypress(Space),,,,,,,,-- --- ---- --- ------ ----- ------- ---- -- --- ------- --<br>------- ---------- ------ -- ----- -- ----- -- ---- ------<br>--- ----- --- --- ------ -------- ----- The ------ ----- --<br>----- ----- ---------- --- --- ------ ------ ---- -- ------<br>------- --- ------ ----- --- ---- ------- -- ---- --- --<br>------- ------,217383.17499984987,217382.42499995977,216855.732,216863.57999988832,216872.334,217389.42,,29,The
screen,html.Screen,1_1_1_1_30,2021-04-02T22:50:31.917Z,,,,,,,,,,,,,,,,54,,,,,,,,,,,,,,536.964999882417,,response,,,,100,,,,,,,Space,keypress(Space),,,,,,,,-- --- ---- --- ------ ----- ------- ---- -- --- ------- --<br>------- ---------- ------ -- ----- -- ----- -- ---- ------<br>--- ----- --- --- ------ -------- ----- --- market ----- --<br>----- ----- ---------- --- --- ------ ------ ---- -- ------<br>------- --- ------ ----- --- ---- ------- -- ---- --- --<br>------- ------,217927.08999989554,217926.38499988243,217372.788,217383.3849998191,217389.42,217939.769,,30,market
screen,html.Screen,1_1_1_1_31,2021-04-02T22:50:32.421Z,,,,,,,,,,,,,,,,54,,,,,,,,,,,,,,490.4359998659638,,response,,,,100,,,,,,,Space,keypress(Space),,,,,,,,-- --- ---- --- ------ ----- ------- ---- -- --- ------- --<br>------- ---------- ------ -- ----- -- ----- -- ---- ------<br>--- ----- --- --- ------ -------- ----- --- ------ value --<br>----- ----- ---------- --- --- ------ ------ ---- -- ------<br>------- --- ------ ----- --- ---- ------- -- ---- --- --<br>------- ------,218430.93999987468,218430.20499986596,217923.162,217927.2949998267,217939.769,218440.002,,31,value
screen,html.Screen,1_1_1_1_32,2021-04-02T22:50:32.917Z,,,,,,,,,,,,,,,,54,,,,,,,,,,,,,,486.2279998663289,,response,,,,100,,,,,,,Space,keypress(Space),,,,,,,,-- --- ---- --- ------ ----- ------- ---- -- --- ------- --<br>------- ---------- ------ -- ----- -- ----- -- ---- ------<br>--- ----- --- --- ------ -------- ----- --- ------ ----- of<br>----- ----- ---------- --- --- ------ ------ ---- -- ------<br>------- --- ------ ----- --- ---- ------- -- ---- --- --<br>------- ------,218926.9749999512,218926.22999986634,218423.48,218431.15499988198,218440.002,218940.469,,32,of
screen,html.Screen,1_1_1_1_33,2021-04-02T22:50:33.405Z,,,,,,,,,,,,,,,,54,,,,,,,,,,,,,,473.69599996556644,,response,,,,100,,,,,,,Space,keypress(Space),,,,,,,,-- --- ---- --- ------ ----- ------- ---- -- --- ------- --<br>------- ---------- ------ -- ----- -- ----- -- ---- ------<br>--- ----- --- --- ------ -------- ----- --- ------ ----- --<br>these ----- ---------- --- --- ------ ------ ---- -- ------<br>------- --- ------ ----- --- ---- ------- -- ---- --- --<br>------- ------,219414.93499977514,219414.16499996558,218923.805,218927.19999980181,218940.469,219424.08,,33,these
screen,html.Screen,1_1_1_1_34,2021-04-02T22:50:33.949Z,,,,,,,,,,,,,,,,54,,,,,,,,,,,,,,533.9899999351182,,response,,,,100,,,,,,,Space,keypress(Space),,,,,,,,-- --- ---- --- ------ ----- ------- ---- -- --- ------- --<br>------- ---------- ------ -- ----- -- ----- -- ---- ------<br>--- ----- --- --- ------ -------- ----- --- ------ ----- --<br>----- bonds ---------- --- --- ------ ------ ---- -- ------<br>------- --- ------ ----- --- ---- ------- -- ---- --- --<br>------- ------,219958.82999990135,219958.0699999351,219407.458,219415.15499982052,219424.08,219974.43,,34,bonds
screen,html.Screen,1_1_1_1_35,2021-04-02T22:50:34.445Z,,,,,,,,,,,,,,,,54,,,,,,,,,,,,,,479.5099999193917,,response,,,,100,,,,,,,Space,keypress(Space),,,,,,,,"-- --- ---- --- ------ ----- ------- ---- -- --- ------- --<br>------- ---------- ------ -- ----- -- ----- -- ---- ------<br>--- ----- --- --- ------ -------- ----- --- ------ ----- --<br>----- ----- plummeted, --- --- ------ ------ ---- -- ------<br>------- --- ------ ----- --- ---- ------- -- ---- --- --<br>------- ------",220454.69999988563,220453.93999991938,219957.829,219960.14999994077,219974.43,220458.086,,35,"plummeted,"
screen,html.Screen,1_1_1_1_36,2021-04-02T22:50:35.573Z,,,,,,,,,,,,,,,,54,,,,,,,,,,,,,,1123.7339999630349,,response,,,,100,,,,,,,Space,keypress(Space),,,,,,,,-- --- ---- --- ------ ----- ------- ---- -- --- ------- --<br>------- ---------- ------ -- ----- -- ----- -- ---- ------<br>--- ----- --- --- ------ -------- ----- --- ------ ----- --<br>----- ----- ---------- and --- ------ ------ ---- -- ------<br>------- --- ------ ----- --- ---- ------- -- ---- --- --<br>------- ------,221582.5149999,221581.81999996305,220441.466,220454.9049998168,220458.086,221592.058,,36,and
screen,html.Screen,1_1_1_1_37,2021-04-02T22:50:36.109Z,,,,,,,,,,,,,,,,54,,,,,,,,,,,,,,525.8019998820673,,response,,,,100,,,,,,,Space,keypress(Space),,,,,,,,-- --- ---- --- ------ ----- ------- ---- -- --- ------- --<br>------- ---------- ------ -- ----- -- ----- -- ---- ------<br>--- ----- --- --- ------ -------- ----- --- ------ ----- --<br>----- ----- ---------- --- the ------ ------ ---- -- ------<br>------- --- ------ ----- --- ---- ------- -- ---- --- --<br>------- ------,222118.69499995373,222117.85999988206,221575.637,221582.73999998346,221592.058,222125.813,,37,the
screen,html.Screen,1_1_1_1_38,2021-04-02T22:50:36.669Z,,,,,,,,,,,,,,,,54,,,,,,,,,,,,,,551.7919998588914,,response,,,,100,,,,,,,Space,keypress(Space),,,,,,,,-- --- ---- --- ------ ----- ------- ---- -- --- ------- --<br>------- ---------- ------ -- ----- -- ----- -- ---- ------<br>--- ----- --- --- ------ -------- ----- --- ------ ----- --<br>----- ----- ---------- --- --- market ------ ---- -- ------<br>------- --- ------ ----- --- ---- ------- -- ---- --- --<br>------- ------,222678.43999993056,222677.6049998589,222109.235,222118.92499984242,222125.813,222692.944,,38,market
screen,html.Screen,1_1_1_1_39,2021-04-02T22:50:37.237Z,,,,,,,,,,,,,,,,54,,,,,,,,,,,,,,552.9909997807408,,response,,,,100,,,,,,,Space,keypress(Space),,,,,,,,-- --- ---- --- ------ ----- ------- ---- -- --- ------- --<br>------- ---------- ------ -- ----- -- ----- -- ---- ------<br>--- ----- --- --- ------ -------- ----- --- ------ ----- --<br>----- ----- ---------- --- --- ------ became ---- -- ------<br>------- --- ------ ----- --- ---- ------- -- ---- --- --<br>------- ------,223246.61999987438,223245.93499978073,222676.286,222678.65499993786,222692.944,223259.914,,39,became
screen,html.Screen,1_1_1_1_40,2021-04-02T22:50:37.748Z,,,,,,,,,,,,,,,,54,,,,,,,,,,,,,,497.470999888028,,response,,,,100,,,,,,,Space,keypress(Space),,,,,,,,-- --- ---- --- ------ ----- ------- ---- -- --- ------- --<br>------- ---------- ------ -- ----- -- ----- -- ---- ------<br>--- ----- --- --- ------ -------- ----- --- ------ ----- --<br>----- ----- ---------- --- --- ------ ------ wary -- ------<br>------- --- ------ ----- --- ---- ------- -- ---- --- --<br>------- ------,223758.06999998167,223757.38499988802,223243.318,223246.8299998436,223259.914,223760.252,,40,wary
screen,html.Screen,1_1_1_1_41,2021-04-02T22:50:38.212Z,,,,,,,,,,,,,,,,54,,,,,,,,,,,,,,461.0529998972488,,response,,,,100,,,,,,,Space,keypress(Space),,,,,,,,-- --- ---- --- ------ ----- ------- ---- -- --- ------- --<br>------- ---------- ------ -- ----- -- ----- -- ---- ------<br>--- ----- --- --- ------ -------- ----- --- ------ ----- --<br>----- ----- ---------- --- --- ------ ------ ---- of ------<br>------- --- ------ ----- --- ---- ------- -- ---- --- --<br>------- ------,224222.02499979176,224221.30499989726,223743.641,223758.27499991283,223760.252,224227.13,,41,of
screen,html.Screen,1_1_1_1_42,2021-04-02T22:50:38.724Z,,,,,,,,,,,,,,,,54,,,,,,,,,,,,,,506.1049999342067,,response,,,,100,,,,,,,Space,keypress(Space),,,,,,,,-- --- ---- --- ------ ----- ------- ---- -- --- ------- --<br>------- ---------- ------ -- ----- -- ----- -- ---- ------<br>--- ----- --- --- ------ -------- ----- --- ------ ----- --<br>----- ----- ---------- --- --- ------ ------ ---- -- French<br>------- --- ------ ----- --- ---- ------- -- ---- --- --<br>------- ------,224733.93999994732,224733.2349999342,224210.604,224222.23499999382,224227.13,224744.153,,42,French
screen,html.Screen,1_1_1_1_43,2021-04-02T22:50:39.300Z,,,,,,,,,,,,,,,,54,,,,,,,,,,,,,,565.0769997806638,,response,,,,100,,,,,,,Space,keypress(Space),,,,,,,,-- --- ---- --- ------ ----- ------- ---- -- --- ------- --<br>------- ---------- ------ -- ----- -- ----- -- ---- ------<br>--- ----- --- --- ------ -------- ----- --- ------ ----- --<br>----- ----- ---------- --- --- ------ ------ ---- -- ------<br>credit. --- ------ ----- --- ---- ------- -- ---- --- --<br>------- ------,225310.0099998992,225309.22999978065,224727.612,224734.14999991655,224744.153,225327.958,,43,credit.
screen,html.Screen,1_1_1_1_44,2021-04-02T22:50:39.860Z,,,,,,,,,,,,,,,,54,,,,,,,,,,,,,,541.2169998833851,,response,,,,100,,,,,,,Space,keypress(Space),,,,,,,,-- --- ---- --- ------ ----- ------- ---- -- --- ------- --<br>------- ---------- ------ -- ----- -- ----- -- ---- ------<br>--- ----- --- --- ------ -------- ----- --- ------ ----- --<br>----- ----- ---------- --- --- ------ ------ ---- -- ------<br>------- The ------ ----- --- ---- ------- -- ---- --- --<br>------- ------,225869.98999980278,225869.1749998834,225294.627,225310.21999986842,225327.958,225878.303,,44,The
screen,html.Screen,1_1_1_1_45,2021-04-02T22:50:40.460Z,,,,,,,,,,,,,,,,54,,,,,,,,,,,,,,590.7869997949456,,response,,,,100,,,,,,,Space,keypress(Space),,,,,,,,-- --- ---- --- ------ ----- ------- ---- -- --- ------- --<br>------- ---------- ------ -- ----- -- ----- -- ---- ------<br>--- ----- --- --- ------ -------- ----- --- ------ ----- --<br>----- ----- ---------- --- --- ------ ------ ---- -- ------<br>------- --- French ----- --- ---- ------- -- ---- --- --<br>------- ------,226469.8699999135,226469.08999979496,225861.702,225870.20999984816,225878.303,226478.712,,45,French
screen,html.Screen,1_1_1_1_46,2021-04-02T22:50:41.140Z,,,,,,,,,,,,,,,,54,,,,,,,,,,,,,,670.2629997854237,,response,,,,100,,,,,,,Space,keypress(Space),,,,,,,,-- --- ---- --- ------ ----- ------- ---- -- --- ------- --<br>------- ---------- ------ -- ----- -- ----- -- ---- ------<br>--- ----- --- --- ------ -------- ----- --- ------ ----- --<br>----- ----- ---------- --- --- ------ ------ ---- -- ------<br>------- --- ------ state --- ---- ------- -- ---- --- --<br>------- ------,227149.76999978535,227148.97499978542,226462.101,226470.07499984466,226478.712,227162.49,,46,state
screen,html.Screen,1_1_1_1_47,2021-04-02T22:50:41.636Z,,,,,,,,,,,,,,,,54,,,,,,,,,,,,,,482.3999998795334,,response,,,,100,,,,,,,Space,keypress(Space),,,,,,,,-- --- ---- --- ------ ----- ------- ---- -- --- ------- --<br>------- ---------- ------ -- ----- -- ----- -- ---- ------<br>--- ----- --- --- ------ -------- ----- --- ------ ----- --<br>----- ----- ---------- --- --- ------ ------ ---- -- ------<br>------- --- ------ ----- was ---- ------- -- ---- --- --<br>------- ------,227645.6749998033,227644.88999987952,227145.904,227149.9949998688,227162.49,227662.861,,47,was
screen,html.Screen,1_1_1_1_48,2021-04-02T22:50:42.228Z,,,,,,,,,,,,,,,,54,,,,,,,,,,,,,,573.9289999953762,,response,,,,100,,,,,,,Space,keypress(Space),,,,,,,,-- --- ---- --- ------ ----- ------- ---- -- --- ------- --<br>------- ---------- ------ -- ----- -- ----- -- ---- ------<br>--- ----- --- --- ------ -------- ----- --- ------ ----- --<br>----- ----- ---------- --- --- ------ ------ ---- -- ------<br>------- --- ------ ----- --- left ------- -- ---- --- --<br>------- ------,228237.56499984302,228236.78999999538,227646.202,227645.8899998106,227662.861,228246.52,,48,left
screen,html.Screen,1_1_1_1_49,2021-04-02T22:50:42.708Z,,,,,,,,,,,,,,,,54,,,,,,,,,,,,,,470.1999999094114,,response,,,,100,,,,,,,Space,keypress(Space),,,,,,,,-- --- ---- --- ------ ----- ------- ---- -- --- ------- --<br>------- ---------- ------ -- ----- -- ----- -- ---- ------<br>--- ----- --- --- ------ -------- ----- --- ------ ----- --<br>----- ----- ---------- --- --- ------ ------ ---- -- ------<br>------- --- ------ ----- --- ---- without -- ---- --- --<br>------- ------,228717.50499983318,228716.7199999094,228229.929,228237.7849998884,228246.52,228730.169,,49,without
screen,html.Screen,1_1_1_1_50,2021-04-02T22:50:43.124Z,,,,,,,,,,,,,,,,54,,,,,,,,,,,,,,402.43099989532493,,response,,,,100,,,,,,,Space,keypress(Space),,,,,,,,-- --- ---- --- ------ ----- ------- ---- -- --- ------- --<br>------- ---------- ------ -- ----- -- ----- -- ---- ------<br>--- ----- --- --- ------ -------- ----- --- ------ ----- --<br>----- ----- ---------- --- --- ------ ------ ---- -- ------<br>------- --- ------ ----- --- ---- ------- an ---- --- --<br>------- ------,229133.31999978982,229132.59999989532,228713.566,228717.72499987856,228730.169,229147.169,,50,an
screen,html.Screen,1_1_1_1_51,2021-04-02T22:50:43.620Z,,,,,,,,,,,,,,,,54,,,,,,,,,,,,,,481.4459998195525,,response,,,,100,,,,,,,Space,keypress(Space),,,,,,,,-- --- ---- --- ------ ----- ------- ---- -- --- ------- --<br>------- ---------- ------ -- ----- -- ----- -- ---- ------<br>--- ----- --- --- ------ -------- ----- --- ------ ----- --<br>----- ----- ---------- --- --- ------ ------ ---- -- ------<br>------- --- ------ ----- --- ---- ------- -- easy --- --<br>------- ------,229629.3599999044,229628.61499981955,229130.496,229133.5399998352,229147.169,229649.42,,51,easy
screen,html.Screen,1_1_1_1_52,2021-04-02T22:50:44.196Z,,,,,,,,,,,,,,,,54,,,,,,,,,,,,,,555.1399999837449,,response,,,,100,,,,,,,Space,keypress(Space),,,,,,,,-- --- ---- --- ------ ----- ------- ---- -- --- ------- --<br>------- ---------- ------ -- ----- -- ----- -- ---- ------<br>--- ----- --- --- ------ -------- ----- --- ------ ----- --<br>----- ----- ---------- --- --- ------ ------ ---- -- ------<br>------- --- ------ ----- --- ---- ------- -- ---- way --<br>------- ------,230205.31999995,230204.55999998376,229614.158,229629.57999994978,229649.42,230214.376,,52,way
screen,html.Screen,1_1_1_1_53,2021-04-02T22:50:44.684Z,,,,,,,,,,,,,,,,54,,,,,,,,,,,,,,478.05399982089875,,response,,,,100,,,,,,,Space,keypress(Space),,,,,,,,-- --- ---- --- ------ ----- ------- ---- -- --- ------- --<br>------- ---------- ------ -- ----- -- ----- -- ---- ------<br>--- ----- --- --- ------ -------- ----- --- ------ ----- --<br>----- ----- ---------- --- --- ------ ------ ---- -- ------<br>------- --- ------ ----- --- ---- ------- -- ---- --- of<br>------- ------,230693.23999993503,230692.4299998209,230197.885,230205.55499987677,230214.376,230698.157,,53,of
screen,html.Screen,1_1_1_1_54,2021-04-02T22:50:45.283Z,,,,,,,,,,,,,,,,54,,,,,,,,,,,,,,594.0879999023164,,response,,,,100,,,,,,,Space,keypress(Space),,,,,,,,-- --- ---- --- ------ ----- ------- ---- -- --- ------- --<br>------- ---------- ------ -- ----- -- ----- -- ---- ------<br>--- ----- --- --- ------ -------- ----- --- ------ ----- --<br>----- ----- ---------- --- --- ------ ------ ---- -- ------<br>------- --- ------ ----- --- ---- ------- -- ---- --- --<br>raising ------,231292.94999991544,231292.24499990232,230681.521,230693.4599999804,230698.157,231298.432,,54,raising
screen,html.Screen,1_1_1_1_55,2021-04-02T22:50:46.851Z,,,,,,,,,,,,,,,,54,,,,,,,,,,,,,,1561.5829999838315,,response,,,,100,,,,,,,Space,keypress(Space),,,,,,,,-- --- ---- --- ------ ----- ------- ---- -- --- ------- --<br>------- ---------- ------ -- ----- -- ----- -- ---- ------<br>--- ----- --- --- ------ -------- ----- --- ------ ----- --<br>----- ----- ---------- --- --- ------ ------ ---- -- ------<br>------- --- ------ ----- --- ---- ------- -- ---- --- --<br>------- money.,232860.7249998022,232860.01499998383,231281.938,231293.15999988467,231298.432,232866.197,,55,money.
Item 100,flow.Loop,1_1_1_1,2021-04-02T22:50:46.851Z,,,,,,,,,,,,,,,,,,,,,,,,,,,,,,30997.427999983833,,completion,,,,,A,,,,,,,,,,,silence,,,,,232861.09999986365,232860.01499998383,201845.869,201846.82999993674,201862.587,232866.197,,,
Question 1,html.Screen,1_1_1_2,2021-04-02T22:51:07.066Z,,,,,,,,,,,,,,,,,,,,,,,,,,,true,TRUE,,20207.81299986568,,response,,,,100,A,,,,,,TRUE,click #choice-1,,,,silence,,,,,253075.1099998597,253074.00999986567,232849.763,232861.2749997992,232866.197,253079.504,,,
Question 2,html.Screen,1_1_1_3,2021-04-02T22:51:11.377Z,,,,,,,,,,,,,,,,,,,,,,,,,,,true,FALSE,,4305.675999982952,,response,,,,100,A,,,,,,FALSE,click #choice-2,,,,silence,,,,,257386.10000000335,257385.17999998294,253062.846,253075.31999982893,253079.504,257398.931,,,
Item 100,flow.Sequence,1_1_1,2021-04-02T22:51:11.377Z,,,,,,,,,,,,,,,,,,,,,,,,,,,,,,65529.240999982925,,completion,,,,,,,,,,,,,,,,,,,,,257386.4099998027,257385.17999998294,191839.311,191852.8749998659,191855.939,257398.931,,,
End of Practice,html.Page,1_1_2,2021-04-02T22:51:20.120Z,,,,,,,,,,,,,,,,,,,,,,,,,,,,,,8729.958999818045,,form submission,,,,,,,,,,,,,,,,,,,,,266129.239999922,266128.88999981806,257382.329,257386.56999985687,257398.931,266137.938,,,
Practice,flow.Sequence,1_1,2021-04-02T22:51:20.120Z,,,,,,,,,,,,,,,,,,,,,,,,,,,,,,130109.54799981805,,completion,,,,,,,,,,,,,,,,,,,,,266129.55499999225,266128.88999981806,136002.633,136010.23999997415,136019.342,266137.938,,,
Trap_instruction,html.Page,1_2_0,2021-04-02T22:51:29.326Z,,,,,,,,,,,,,,,,,,,,,,,,,,,,,,9197.571999887994,,form submission,,,,,,,,,,,,,,,,,,,,,275335.8499999158,275335.509999888,266121.395,266129.7649999615,266137.938,275360.719,,,
trap_trial,html.Screen,1_2_1,2021-04-02T22:51:41.804Z,,,,,,,,,,,,,,,,,,,,,,,,,,,true,1,,12451.83099991508,,response,,,,,,,,,,,1,click #choice-1,,,,,,,,,287813.67499986663,287812.54999991506,275327.397,275336.05999988504,275360.719,287818.929,,,
end of trap trial,html.Page,1_2_2,2021-04-02T22:51:43.540Z,,,,,,,,,,,,,,,,,,,,,,,,,,,,,,1730.530999892857,,form submission,,,,,,,,,,,,,,,,,,,,,289549.82999991626,289549.45999989286,287802.288,287813.9699997846,287818.929,289553.4,,,
Trap 1,flow.Sequence,1_2,2021-04-02T22:51:43.541Z,,,,,,,,,,,,,,,,,,,,,,,,,,,,,,23411.521999892837,,completion,,,,,,,,,,,,,,,,,,,,,289550.1749999821,289549.45999989286,266121.395,266129.7049999703,266137.938,289553.4,,,
Standby,html.Page,1_3_0,2021-04-02T22:51:51.533Z,,,,,,,,,,,,,,,,,,,,,,,,,,,,,,8005.275999999954,,timeout,,,,,,,,,,,,,,,,,,,,,297542.8599999286,297542.028,289536.731,289550.4099999089,289553.4,297558.676,,,
Holding screen,html.Screen,1_3_1_0_0,2021-04-02T22:51:58.538Z,,,,,,,,,,,,,,,,,,,,,,,,,,,,,,7004.659000000043,,timeout,,,,,,,,,,,,,,,,,,,,,304547.32499993406,304546.611,297542.028,297543.2049999945,297558.676,304563.335,,,
screen,html.Screen,1_3_1_0_1_0,2021-04-02T22:51:59.193Z,,,,,,,,,,,,,,,,2,,,,,,,,,,,,,,638.1249998947023,,response,,,,1,A,,,,,,Space,keypress(Space),,,,silence,,,,Two ---- ------ --- ------- ---------- ------- ----------<br>--- --------- --- ----------- ------- ----- ------- ---<br>--------- ---- -- --- ---- -- --------- -- ---- -------<br>-- --------- ------ --- ----- ------ ---- --- --------- --<br>------ - ---- -- --- ----------- ------- ---- ----- -----<br>--- -------- - ------ ---- -- ----- ---- --- --- -----------<br>-- -------,305202.2749998141,305201.4599998947,304546.611,304547.57499997504,304563.335,305213.712,,0,Two
screen,html.Screen,1_3_1_0_1_1,2021-04-02T22:51:59.673Z,,,,,,,,,,,,,,,,2,,,,,,,,,,,,,,467.2629999083583,,response,,,,1,A,,,,,,Space,keypress(Space),,,,silence,,,,--- days ------ --- ------- ---------- ------- ----------<br>--- --------- --- ----------- ------- ----- ------- ---<br>--------- ---- -- --- ---- -- --------- -- ---- -------<br>-- --------- ------ --- ----- ------ ---- --- --------- --<br>------ - ---- -- --- ----------- ------- ---- ----- -----<br>--- -------- - ------ ---- -- ----- ---- --- --- -----------<br>-- -------,305681.71499995515,305680.97499990836,305197.127,305202.51499977894,305213.712,305697.412,,1,days
screen,html.Screen,1_3_1_0_1_2,2021-04-02T22:52:00.089Z,,,,,,,,,,,,,,,,2,,,,,,,,,,,,,,399.3979997844435,,response,,,,1,A,,,,,,Space,keypress(Space),,,,silence,,,,"--- ---- later, --- ------- ---------- ------- ----------<br>--- --------- --- ----------- ------- ----- ------- ---<br>--------- ---- -- --- ---- -- --------- -- ---- -------<br>-- --------- ------ --- ----- ------ ---- --- --------- --<br>------ - ---- -- --- ----------- ------- ---- ----- -----<br>--- -------- - ------ ---- -- ----- ---- --- --- -----------<br>-- -------",306097.64499985613,306096.80999978445,305680.749,305681.9249999244,305697.412,306114.354,,2,"later,"
screen,html.Screen,1_3_1_0_1_3,2021-04-02T22:52:00.505Z,,,,,,,,,,,,,,,,2,,,,,,,,,,,,,,398.34599984652596,,response,,,,1,A,,,,,,Space,keypress(Space),,,,silence,,,,--- ---- ------ the ------- ---------- ------- ----------<br>--- --------- --- ----------- ------- ----- ------- ---<br>--------- ---- -- --- ---- -- --------- -- ---- -------<br>-- --------- ------ --- ----- ------ ---- --- --------- --<br>------ - ---- -- --- ----------- ------- ---- ----- -----<br>--- -------- - ------ ---- -- ----- ---- --- --- -----------<br>-- -------,306513.5049999226,306512.6999998465,306097.683,306097.8699999396,306114.354,306531.237,,3,the
screen,html.Screen,1_3_1_0_1_4,2021-04-02T22:52:00.985Z,,,,,,,,,,,,,,,,2,,,,,,,,,,,,,,461.35799995966954,,response,,,,1,A,,,,,,Space,keypress(Space),,,,silence,,,,--- ---- ------ --- British ---------- ------- ----------<br>--- --------- --- ----------- ------- ----- ------- ---<br>--------- ---- -- --- ---- -- --------- -- ---- -------<br>-- --------- ------ --- ----- ------ ---- --- --------- --<br>------ - ---- -- --- ----------- ------- ---- ----- -----<br>--- -------- - ------ ---- -- ----- ---- --- --- -----------<br>-- -------,306993.45999979414,306992.5949999597,306497.942,306513.7199999299,306531.237,306998.165,,4,British
screen,html.Screen,1_3_1_0_1_5,2021-04-02T22:52:01.400Z,,,,,,,,,,,,,,,,2,,,,,,,,,,,,,,410.3149999837042,,response,,,,1,A,,,,,,Space,keypress(Space),,,,silence,,,,--- ---- ------ --- ------- astronomer ------- ----------<br>--- --------- --- ----------- ------- ----- ------- ---<br>--------- ---- -- --- ---- -- --------- -- ---- -------<br>-- --------- ------ --- ----- ------ ---- --- --------- --<br>------ - ---- -- --- ----------- ------- ---- ----- -----<br>--- -------- - ------ ---- -- ----- ---- --- --- -----------<br>-- -------,307409.17499992065,307408.4799999837,306981.603,306993.6799998395,306998.165,307415.076,,5,astronomer
screen,html.Screen,1_3_1_0_1_6,2021-04-02T22:52:01.840Z,,,,,,,,,,,,,,,,2,,,,,,,,,,,,,,433.3439999365946,,response,,,,1,A,,,,,,Space,keypress(Space),,,,silence,,,,--- ---- ------ --- ------- ---------- Richard ----------<br>--- --------- --- ----------- ------- ----- ------- ---<br>--------- ---- -- --- ---- -- --------- -- ---- -------<br>-- --------- ------ --- ----- ------ ---- --- --------- --<br>------ - ---- -- --- ----------- ------- ---- ----- -----<br>--- -------- - ------ ---- -- ----- ---- --- --- -----------<br>-- -------,307849.11999991164,307848.4199999366,307398.538,307409.37499981374,307415.076,307865.488,,6,Richard
screen,html.Screen,1_3_1_0_1_7,2021-04-02T22:52:02.392Z,,,,,,,,,,,,,,,,2,,,,,,,,,,,,,,534.8719998541055,,response,,,,1,A,,,,,,Space,keypress(Space),,,,silence,,,,--- ---- ------ --- ------- ---------- ------- Carrington<br>--- --------- --- ----------- ------- ----- ------- ---<br>--------- ---- -- --- ---- -- --------- -- ---- -------<br>-- --------- ------ --- ----- ------ ---- --- --------- --<br>------ - ---- -- --- ----------- ------- ---- ----- -----<br>--- -------- - ------ ---- -- ----- ---- --- --- -----------<br>-- -------,308401.06499986723,308400.3599998541,307848.827,307849.3249998428,307865.488,308415.847,,7,Carrington
screen,html.Screen,1_3_1_0_1_8,2021-04-02T22:52:02.824Z,,,,,,,,,,,,,,,,2,,,,,,,,,,,,,,416.37299998203525,,response,,,,1,A,,,,,,Space,keypress(Space),,,,silence,,,,--- ---- ------ --- ------- ---------- ------- ----------<br>was --------- --- ----------- ------- ----- ------- ---<br>--------- ---- -- --- ---- -- --------- -- ---- -------<br>-- --------- ------ --- ----- ------ ---- --- --------- --<br>------ - ---- -- --- ----------- ------- ---- ----- -----<br>--- -------- - ------ ---- -- ----- ---- --- --- -----------<br>-- -------,308832.92499999516,308832.21999998204,308399.207,308401.27499983646,308415.847,308849.473,,8,was
screen,html.Screen,1_3_1_0_1_9,2021-04-02T22:52:03.248Z,,,,,,,,,,,,,,,,2,,,,,,,,,,,,,,406.7219999071676,,response,,,,1,A,,,,,,Space,keypress(Space),,,,silence,,,,--- ---- ------ --- ------- ---------- ------- ----------<br>--- observing --- ----------- ------- ----- ------- ---<br>--------- ---- -- --- ---- -- --------- -- ---- -------<br>-- --------- ------ --- ----- ------ ---- --- --------- --<br>------ - ---- -- --- ----------- ------- ---- ----- -----<br>--- -------- - ------ ---- -- ----- ---- --- --- -----------<br>-- -------,309256.94999983534,309256.19499990717,308832.808,308833.12499988824,308849.473,309266.247,,9,observing
screen,html.Screen,1_3_1_0_1_10,2021-04-02T22:52:03.648Z,,,,,,,,,,,,,,,,2,,,,,,,,,,,,,,389.962999928277,,response,,,,1,A,,,,,,Space,keypress(Space),,,,silence,,,,--- ---- ------ --- ------- ---------- ------- ----------<br>--- --------- the ----------- ------- ----- ------- ---<br>--------- ---- -- --- ---- -- --------- -- ---- -------<br>-- --------- ------ --- ----- ------ ---- --- --------- --<br>------ - ---- -- --- ----------- ------- ---- ----- -----<br>--- -------- - ------ ---- -- ----- ---- --- --- -----------<br>-- -------,309657.01999980956,309656.20999992825,309249.749,309257.15499999933,309266.247,309666.53,,10,the
screen,html.Screen,1_3_1_0_1_11,2021-04-02T22:52:04.240Z,,,,,,,,,,,,,,,,2,,,,,,,,,,,,,,581.5999999635387,,response,,,,1,A,,,,,,Space,keypress(Space),,,,silence,,,,--- ---- ------ --- ------- ---------- ------- ----------<br>--- --------- --- interesting ------- ----- ------- ---<br>--------- ---- -- --- ---- -- --------- -- ---- -------<br>-- --------- ------ --- ----- ------ ---- --- --------- --<br>------ - ---- -- --- ----------- ------- ---- ----- -----<br>--- -------- - ------ ---- -- ----- ---- --- --- -----------<br>-- -------,310248.91499988735,310248.12999996357,309650.011,309657.23499981686,309666.53,310282.289,,11,interesting
screen,html.Screen,1_3_1_0_1_12,2021-04-02T22:52:04.704Z,,,,,,,,,,,,,,,,2,,,,,,,,,,,,,,429.8509999596281,,response,,,,1,A,,,,,,Space,keypress(Space),,,,silence,,,,--- ---- ------ --- ------- ---------- ------- ----------<br>--- --------- --- ----------- sunspot ----- ------- ---<br>--------- ---- -- --- ---- -- --------- -- ---- -------<br>-- --------- ------ --- ----- ------ ---- --- --------- --<br>------ - ---- -- --- ----------- ------- ---- ----- -----<br>--- -------- - ------ ---- -- ----- ---- --- --- -----------<br>-- -------,310712.92999992147,310712.1399999596,310233.754,310249.12999989465,310282.289,310717.327,,12,sunspot
screen,html.Screen,1_3_1_0_1_13,2021-04-02T22:52:05.120Z,,,,,,,,,,,,,,,,2,,,,,,,,,,,,,,410.5979999206611,,response,,,,1,A,,,,,,Space,keypress(Space),,,,silence,,,,--- ---- ------ --- ------- ---------- ------- ----------<br>--- --------- --- ----------- ------- group ------- ---<br>--------- ---- -- --- ---- -- --------- -- ---- -------<br>-- --------- ------ --- ----- ------ ---- --- --------- --<br>------ - ---- -- --- ----------- ------- ---- ----- -----<br>--- -------- - ------ ---- -- ----- ---- --- --- -----------<br>-- -------,311128.66499996744,311127.92499992065,310700.703,310713.1349998526,310717.327,311134.181,,13,group
screen,html.Screen,1_3_1_0_1_14,2021-04-02T22:52:05.600Z,,,,,,,,,,,,,,,,2,,,,,,,,,,,,,,473.74399990204256,,response,,,,1,A,,,,,,Space,keypress(Space),,,,silence,,,,--- ---- ------ --- ------- ---------- ------- ----------<br>--- --------- --- ----------- ------- ----- through ---<br>--------- ---- -- --- ---- -- --------- -- ---- -------<br>-- --------- ------ --- ----- ------ ---- --- --------- --<br>------ - ---- -- --- ----------- ------- ---- ----- -----<br>--- -------- - ------ ---- -- ----- ---- --- --- -----------<br>-- -------,311608.7449998595,311607.924999902,311117.642,311128.8699998986,311134.181,311617.957,,14,through
screen,html.Screen,1_3_1_0_1_15,2021-04-02T22:52:06.048Z,,,,,,,,,,,,,,,,2,,,,,,,,,,,,,,437.9080000020913,,response,,,,1,A,,,,,,Space,keypress(Space),,,,silence,,,,--- ---- ------ --- ------- ---------- ------- ----------<br>--- --------- --- ----------- ------- ----- ------- his<br>--------- ---- -- --- ---- -- --------- -- ---- -------<br>-- --------- ------ --- ----- ------ ---- --- --------- --<br>------ - ---- -- --- ----------- ------- ---- ----- -----<br>--- -------- - ------ ---- -- ----- ---- --- --- -----------<br>-- -------,312056.68499995954,312055.8650000021,311601.305,311608.9549998287,311617.957,312068.208,,15,his
screen,html.Screen,1_3_1_0_1_16,2021-04-02T22:52:06.568Z,,,,,,,,,,,,,,,,2,,,,,,,,,,,,,,507.5969997966895,,response,,,,1,A,,,,,,Space,keypress(Space),,,,silence,,,,--- ---- ------ --- ------- ---------- ------- ----------<br>--- --------- --- ----------- ------- ----- ------- ---<br>telescope ---- -- --- ---- -- --------- -- ---- -------<br>-- --------- ------ --- ----- ------ ---- --- --------- --<br>------ - ---- -- --- ----------- ------- ---- ----- -----<br>--- -------- - ------ ---- -- ----- ---- --- --- -----------<br>-- -------,312576.5999997966,312575.8049997967,312051.595,312056.90999981016,312068.208,312585.137,,16,telescope
screen,html.Screen,1_3_1_0_1_17,2021-04-02T22:52:07.024Z,,,,,,,,,,,,,,,,2,,,,,,,,,,,,,,446.5429997817846,,response,,,,1,A,,,,,,Space,keypress(Space),,,,silence,,,,--- ---- ------ --- ------- ---------- ------- ----------<br>--- --------- --- ----------- ------- ----- ------- ---<br>--------- when -- --- ---- -- --------- -- ---- -------<br>-- --------- ------ --- ----- ------ ---- --- --------- --<br>------ - ---- -- --- ----------- ------- ---- ----- -----<br>--- -------- - ------ ---- -- ----- ---- --- --- -----------<br>-- -------,313032.4749997817,313031.6799997818,312568.611,312576.8149998039,312585.137,313035.477,,17,when
screen,html.Screen,1_3_1_0_1_18,2021-04-02T22:52:07.464Z,,,,,,,,,,,,,,,,2,,,,,,,,,,,,,,436.09299981960794,,response,,,,1,A,,,,,,Space,keypress(Space),,,,silence,,,,--- ---- ------ --- ------- ---------- ------- ----------<br>--- --------- --- ----------- ------- ----- ------- ---<br>--------- ---- he --- ---- -- --------- -- ---- -------<br>-- --------- ------ --- ----- ------ ---- --- --------- --<br>------ - ---- -- --- ----------- ------- ---- ----- -----<br>--- -------- - ------ ---- -- ----- ---- --- --- -----------<br>-- -------,313472.35499997623,313471.5699998196,313018.869,313032.6949998271,313035.477,313485.867,,18,he
screen,html.Screen,1_3_1_0_1_19,2021-04-02T22:52:07.911Z,,,,,,,,,,,,,,,,2,,,,,,,,,,,,,,433.62300000019604,,response,,,,1,A,,,,,,Space,keypress(Space),,,,silence,,,,--- ---- ------ --- ------- ---------- ------- ----------<br>--- --------- --- ----------- ------- ----- ------- ---<br>--------- ---- -- saw ---- -- --------- -- ---- -------<br>-- --------- ------ --- ----- ------ ---- --- --------- --<br>------ - ---- -- --- ----------- ------- ---- ----- -----<br>--- -------- - ------ ---- -- ----- ---- --- --- -----------<br>-- -------,313920.2299998142,313919.4900000002,313469.149,313472.56999998353,313485.867,313936.152,,19,saw
screen,html.Screen,1_3_1_0_1_20,2021-04-02T22:52:08.343Z,,,,,,,,,,,,,,,,2,,,,,,,,,,,,,,415.3179998777341,,response,,,,1,A,,,,,,Space,keypress(Space),,,,silence,,,,--- ---- ------ --- ------- ---------- ------- ----------<br>--- --------- --- ----------- ------- ----- ------- ---<br>--------- ---- -- --- what -- --------- -- ---- -------<br>-- --------- ------ --- ----- ------ ---- --- --------- --<br>------ - ---- -- --- ----------- ------- ---- ----- -----<br>--- -------- - ------ ---- -- ----- ---- --- --- -----------<br>-- -------,314352.2099999245,314351.46999987774,313919.49,313920.43499997817,313936.152,314369.743,,20,what
screen,html.Screen,1_3_1_0_1_21,2021-04-02T22:52:08.823Z,,,,,,,,,,,,,,,,2,,,,,,,,,,,,,,461.7319998971652,,response,,,,1,A,,,,,,Space,keypress(Space),,,,silence,,,,--- ---- ------ --- ------- ---------- ------- ----------<br>--- --------- --- ----------- ------- ----- ------- ---<br>--------- ---- -- --- ---- he --------- -- ---- -------<br>-- --------- ------ --- ----- ------ ---- --- --------- --<br>------ - ---- -- --- ----------- ------- ---- ----- -----<br>--- -------- - ------ ---- -- ----- ---- --- --- -----------<br>-- -------,314832.31999981217,314831.4749998972,314336.425,314352.41999989375,314369.743,314836.713,,21,he
screen,html.Screen,1_3_1_0_1_22,2021-04-02T22:52:09.376Z,,,,,,,,,,,,,,,,2,,,,,,,,,,,,,,547.1519999816082,,response,,,,1,A,,,,,,Space,keypress(Space),,,,silence,,,,--- ---- ------ --- ------- ---------- ------- ----------<br>--- --------- --- ----------- ------- ----- ------- ---<br>--------- ---- -- --- ---- -- described -- ---- -------<br>-- --------- ------ --- ----- ------ ---- --- --------- --<br>------ - ---- -- --- ----------- ------- ---- ----- -----<br>--- -------- - ------ ---- -- ----- ---- --- --- -----------<br>-- -------,315384.69999982044,315383.8649999816,314820.093,314832.5449998956,314836.713,315387.07,,22,described
screen,html.Screen,1_3_1_0_1_23,2021-04-02T22:52:09.815Z,,,,,,,,,,,,,,,,2,,,,,,,,,,,,,,436.15999997995095,,response,,,,1,A,,,,,,Space,keypress(Space),,,,silence,,,,--- ---- ------ --- ------- ---------- ------- ----------<br>--- --------- --- ----------- ------- ----- ------- ---<br>--------- ---- -- --- ---- -- --------- as ---- -------<br>-- --------- ------ --- ----- ------ ---- --- --------- --<br>------ - ---- -- --- ----------- ------- ---- ----- -----<br>--- -------- - ------ ---- -- ----- ---- --- --- -----------<br>-- -------,315823.76499986276,315823.22999997996,315370.455,315384.91499982774,315387.07,315837.342,,23,as
screen,html.Screen,1_3_1_0_1_24,2021-04-02T22:52:10.279Z,,,,,,,,,,,,,,,,2,,,,,,,,,,,,,,449.79299987497507,,response,,,,1,A,,,,,,Space,keypress(Space),,,,silence,,,,"--- ---- ------ --- ------- ---------- ------- ----------<br>--- --------- --- ----------- ------- ----- ------- ---<br>--------- ---- -- --- ---- -- --------- -- ""two -------<br>-- --------- ------ --- ----- ------ ---- --- --------- --<br>------ - ---- -- --- ----------- ------- ---- ----- -----<br>--- -------- - ------ ---- -- ----- ---- --- --- -----------<br>-- -------",316287.84499992616,316287.134999875,315820.74,315823.9149998408,315837.342,316304.317,,24,"""two"
screen,html.Screen,1_3_1_0_1_25,2021-04-02T22:52:10.759Z,,,,,,,,,,,,,,,,2,,,,,,,,,,,,,,462.7329999076319,,response,,,,1,A,,,,,,Space,keypress(Space),,,,silence,,,,--- ---- ------ --- ------- ---------- ------- ----------<br>--- --------- --- ----------- ------- ----- ------- ---<br>--------- ---- -- --- ---- -- --------- -- ---- patches<br>-- --------- ------ --- ----- ------ ---- --- --------- --<br>------ - ---- -- --- ----------- ------- ---- ----- -----<br>--- -------- - ------ ---- -- ----- ---- --- --- -----------<br>-- -------,316767.7699998021,316767.0499999076,316287.67,316288.0499998573,316304.317,316787.96,,25,patches
screen,html.Screen,1_3_1_0_1_26,2021-04-02T22:52:11.215Z,,,,,,,,,,,,,,,,2,,,,,,,,,,,,,,435.01499980775407,,response,,,,1,A,,,,,,Space,keypress(Space),,,,silence,,,,--- ---- ------ --- ------- ---------- ------- ----------<br>--- --------- --- ----------- ------- ----- ------- ---<br>--------- ---- -- --- ---- -- --------- -- ---- -------<br>of --------- ------ --- ----- ------ ---- --- --------- --<br>------ - ---- -- --- ----------- ------- ---- ----- -----<br>--- -------- - ------ ---- -- ----- ---- --- --- -----------<br>-- -------,317223.6999999732,317222.9749998078,316754.68,316767.9800000042,316787.96,317238.27,,26,of
screen,html.Screen,1_3_1_0_1_27,2021-04-02T22:52:11.711Z,,,,,,,,,,,,,,,,2,,,,,,,,,,,,,,480.769999879878,,response,,,,1,A,,,,,,Space,keypress(Space),,,,silence,,,,--- ---- ------ --- ------- ---------- ------- ----------<br>--- --------- --- ----------- ------- ----- ------- ---<br>--------- ---- -- --- ---- -- --------- -- ---- -------<br>-- intensely ------ --- ----- ------ ---- --- --------- --<br>------ - ---- -- --- ----------- ------- ---- ----- -----<br>--- -------- - ------ ---- -- ----- ---- --- --- -----------<br>-- -------,317719.7799999267,317719.0399998799,317221.648,317223.90499990433,317238.27,317721.941,,27,intensely
screen,html.Screen,1_3_1_0_1_28,2021-04-02T22:52:12.207Z,,,,,,,,,,,,,,,,2,,,,,,,,,,,,,,492.908999872976,,response,,,,1,A,,,,,,Space,keypress(Space),,,,silence,,,,--- ---- ------ --- ------- ---------- ------- ----------<br>--- --------- --- ----------- ------- ----- ------- ---<br>--------- ---- -- --- ---- -- --------- -- ---- -------<br>-- --------- bright --- ----- ------ ---- --- --------- --<br>------ - ---- -- --- ----------- ------- ---- ----- -----<br>--- -------- - ------ ---- -- ----- ---- --- --- -----------<br>-- -------,318215.62499995343,318214.84999987297,317705.302,317720.0049997773,317721.941,318222.227,,28,bright
screen,html.Screen,1_3_1_0_1_29,2021-04-02T22:52:12.687Z,,,,,,,,,,,,,,,,2,,,,,,,,,,,,,,472.587999820651,,response,,,,1,A,,,,,,Space,keypress(Space),,,,silence,,,,--- ---- ------ --- ------- ---------- ------- ----------<br>--- --------- --- ----------- ------- ----- ------- ---<br>--------- ---- -- --- ---- -- --------- -- ---- -------<br>-- --------- ------ and ----- ------ ---- --- --------- --<br>------ - ---- -- --- ----------- ------- ---- ----- -----<br>--- -------- - ------ ---- -- ----- ---- --- --- -----------<br>-- -------,318695.5999999773,318694.81499982066,318205.64,318215.8299998846,318222.227,318705.895,,29,and
screen,html.Screen,1_3_1_0_1_30,2021-04-02T22:52:13.175Z,,,,,,,,,,,,,,,,2,,,,,,,,,,,,,,476.7949999286793,,response,,,,1,A,,,,,,Space,keypress(Space),,,,silence,,,,--- ---- ------ --- ------- ---------- ------- ----------<br>--- --------- --- ----------- ------- ----- ------- ---<br>--------- ---- -- --- ---- -- --------- -- ---- -------<br>-- --------- ------ --- white ------ ---- --- --------- --<br>------ - ---- -- --- ----------- ------- ---- ----- -----<br>--- -------- - ------ ---- -- ----- ---- --- --- -----------<br>-- -------,319183.4299999755,319182.6899999287,318689.296,318695.8249998279,318705.895,319189.462,,30,white
screen,html.Screen,1_3_1_0_1_31,2021-04-02T22:52:13.831Z,,,,,,,,,,,,,,,,2,,,,,,,,,,,,,,649.2129997735028,,response,,,,1,A,,,,,,Space,keypress(Space),,,,silence,,,,"--- ---- ------ --- ------- ---------- ------- ----------<br>--- --------- --- ----------- ------- ----- ------- ---<br>--------- ---- -- --- ---- -- --------- -- ---- -------<br>-- --------- ------ --- ----- light"" ---- --- --------- --<br>------ - ---- -- --- ----------- ------- ---- ----- -----<br>--- -------- - ------ ---- -- ----- ---- --- --- -----------<br>-- -------",319839.3849998247,319838.6749997735,319172.939,319183.6449999828,319189.462,319873.32,,31,"light"""
screen,html.Screen,1_3_1_0_1_32,2021-04-02T22:52:14.318Z,,,,,,,,,,,,,,,,2,,,,,,,,,,,,,,453.2299998815288,,response,,,,1,A,,,,,,Space,keypress(Space),,,,silence,,,,--- ---- ------ --- ------- ---------- ------- ----------<br>--- --------- --- ----------- ------- ----- ------- ---<br>--------- ---- -- --- ---- -- --------- -- ---- -------<br>-- --------- ------ --- ----- ------ over --- --------- --<br>------ - ---- -- --- ----------- ------- ---- ----- -----<br>--- -------- - ------ ---- -- ----- ---- --- --- -----------<br>-- -------,320327.3399998434,320326.54999988154,319856.668,319839.599999832,319873.32,320340.345,,32,over
screen,html.Screen,1_3_1_0_1_33,2021-04-02T22:52:14.806Z,,,,,,,,,,,,,,,,2,,,,,,,,,,,,,,474.1299999046605,,response,,,,1,A,,,,,,Space,keypress(Space),,,,silence,,,,--- ---- ------ --- ------- ---------- ------- ----------<br>--- --------- --- ----------- ------- ----- ------- ---<br>--------- ---- -- --- ---- -- --------- -- ---- -------<br>-- --------- ------ --- ----- ------ ---- the --------- --<br>------ - ---- -- --- ----------- ------- ---- ----- -----<br>--- -------- - ------ ---- -- ----- ---- --- --- -----------<br>-- -------,320815.244999947,320814.47499990463,320323.704,320327.5399999693,320340.345,320823.853,,33,the
screen,html.Screen,1_3_1_0_1_34,2021-04-02T22:52:15.599Z,,,,,,,,,,,,,,,,2,,,,,,,,,,,,,,782.8119998538168,,response,,,,1,A,,,,,,Space,keypress(Space),,,,silence,,,,--- ---- ------ --- ------- ---------- ------- ----------<br>--- --------- --- ----------- ------- ----- ------- ---<br>--------- ---- -- --- ---- -- --------- -- ---- -------<br>-- --------- ------ --- ----- ------ ---- --- sunspots. --<br>------ - ---- -- --- ----------- ------- ---- ----- -----<br>--- -------- - ------ ---- -- ----- ---- --- --- -----------<br>-- -------,321607.45999985375,321606.6649998538,320807.344,320815.45499991626,320823.853,321624.55,,34,sunspots.
screen,html.Screen,1_3_1_0_1_35,2021-04-02T22:52:16.151Z,,,,,,,,,,,,,,,,2,,,,,,,,,,,,,,534.1249998387066,,response,,,,1,A,,,,,,Space,keypress(Space),,,,silence,,,,--- ---- ------ --- ------- ---------- ------- ----------<br>--- --------- --- ----------- ------- ----- ------- ---<br>--------- ---- -- --- ---- -- --------- -- ---- -------<br>-- --------- ------ --- ----- ------ ---- --- --------- He<br>------ - ---- -- --- ----------- ------- ---- ----- -----<br>--- -------- - ------ ---- -- ----- ---- --- --- -----------<br>-- -------,322159.3849998899,322158.6749998387,321607.913,321607.67499986105,321624.55,322174.896,,35,He
screen,html.Screen,1_3_1_0_1_36,2021-04-02T22:52:16.646Z,,,,,,,,,,,,,,,,2,,,,,,,,,,,,,,479.35899994306965,,response,,,,1,A,,,,,,Space,keypress(Space),,,,silence,,,,--- ---- ------ --- ------- ---------- ------- ----------<br>--- --------- --- ----------- ------- ----- ------- ---<br>--------- ---- -- --- ---- -- --------- -- ---- -------<br>-- --------- ------ --- ----- ------ ---- --- --------- --<br>jotted - ---- -- --- ----------- ------- ---- ----- -----<br>--- -------- - ------ ---- -- ----- ---- --- --- -----------<br>-- -------,322655.0149999093,322654.2549999431,322158.238,322159.5949998591,322174.896,322675.17,,36,jotted
