sender,sender_type,sender_id,timestamp,meta,,Provo_ID,age,artist_name,correct,correctResponse,distraction,duration,ended_on,familiarity,gender,headphone_check_performance,item,music_genres,offensiveness,pleasantness,position_correct,preference,response,response_action,song_name,stimulus_1,stimulus_2,stimulus_3,text,time_commit,time_end,time_render,time_run,time_show,time_switch,url,word,word_ID
Demography form,html.Form,0,2021-03-07T04:18:54.888Z,"{""labjs_version"":""20.2.2"",""labjs_build"":{""flavor"":""production"",""commit"":""a25486e0c714a0ae2ce03ff94b7bb6896854dcfa""},""location"":""https://run.pavlovia.org/mvasilev/spr_music_pilot_a/?__pilotToken=a87ff679a2f3e71d9181a67b7542122c&__oauthToken=cc604b6e7d449fc5fe7a311b47aeaf3d810b53f5795c726b331b83656855f6f4"",""userAgent"":""Mozilla/5.0 (Windows NT 10.0; Win64; x64) AppleWebKit/537.36 (KHTML, like Gecko) Chrome/88.0.4324.190 Safari/537.36"",""platform"":""Win32"",""language"":""de-DE"",""locale"":""en-US"",""timeZone"":""Europe/London"",""timezoneOffset"":0,""screen_width"":2560,""screen_height"":1440,""scroll_width"":2560,""scroll_height"":1287,""window_innerWidth"":2560,""window_innerHeight"":1335,""devicePixelRatio"":1}",,,21,,,,,7200.748999956581,form submission,,male,,,,,,,,,,,,,,,12897.624999983236,12896.879999956582,5662.832,5670.694999978878,5696.131,12900.855,"{""__pilotToken"":""a87ff679a2f3e71d9181a67b7542122c"",""__oauthToken"":""cc604b6e7d449fc5fe7a311b47aeaf3d810b53f5795c726b331b83656855f6f4""}",,
Instructions,html.Page,1,2021-03-07T04:18:56.814Z,,,,,,,,,1921.4099999661375,form submission,,,,,,,,,,,,,,,,,14823.615000001155,14822.264999966137,12884.213,12897.924999997485,12900.855,14835.352,,,
Holding screen,html.Screen,2_0,2021-03-07T04:19:03.819Z,,,,,,,,,7021.4,timeout,,,,,,,,,,,,,,,,,21827.929999970365,21823.383,14818.82,14823.854999965988,14835.352,21856.752,,,
screen,html.Screen,2_1_0,2021-03-07T04:19:04.648Z,,,54,,,,,,798.017999964628,response,,,,100,,,,,,Space,keypress(Space),,,,,At --- ---- --- ------ ----- ------- ---- -- --- ------- --<br>------- ---------- ------ -- ----- -- ----- -- ---- ------<br>--- ----- --- --- ------ -------- ----- --- ------ ----- --<br>----- ----- ---------- --- --- ------ ------ ---- -- ------<br>------- --- ------ ----- --- ---- ------- -- ---- --- --<br>------- ------,22656.409999995958,22654.76999996463,21823.383,21831.86499995645,21856.752,22657.266,,0,At
screen,html.Screen,2_1_1,2021-03-07T04:19:04.976Z,,,54,,,,,,326.21399999532514,response,,,,100,,,,,,Space,keypress(Space),,,,,-- the ---- --- ------ ----- ------- ---- -- --- ------- --<br>------- ---------- ------ -- ----- -- ----- -- ---- ------<br>--- ----- --- --- ------ -------- ----- --- ------ ----- --<br>----- ----- ---------- --- --- ------ ------ ---- -- ------<br>------- --- ------ ----- --- ---- ------- -- ---- --- --<br>------- ------,22984.40999997547,22983.479999995325,22640.707,22656.764999963343,22657.266,22990.776,,1,the
screen,html.Screen,2_1_2,2021-03-07T04:19:05.303Z,,,54,,,,,,319.6439999943359,response,,,,100,,,,,,Space,keypress(Space),,,,,-- --- time --- ------ ----- ------- ---- -- --- ------- --<br>------- ---------- ------ -- ----- -- ----- -- ---- ------<br>--- ----- --- --- ------ -------- ----- --- ------ ----- --<br>----- ----- ---------- --- --- ------ ------ ---- -- ------<br>------- --- ------ ----- --- ---- ------- -- ---- --- --<br>------- ------,23311.33499997668,23310.419999994338,22974.193,22984.679999994114,22990.776,23324.286,,2,time
screen,html.Screen,2_1_3,2021-03-07T04:19:05.695Z,,,54,,,,,,378.1290000070221,response,,,,100,,,,,,Space,keypress(Space),,,,,-- --- ---- the ------ ----- ------- ---- -- --- ------- --<br>------- ---------- ------ -- ----- -- ----- -- ---- ------<br>--- ----- --- --- ------ -------- ----- --- ------ ----- --<br>----- ----- ---------- --- --- ------ ------ ---- -- ------<br>------- --- ------ ----- --- ---- ------- -- ---- --- --<br>------- ------,23703.289999975823,23702.415000007022,23307.743,23311.604999995325,23324.286,23707.914,,3,the
screen,html.Screen,2_1_4,2021-03-07T04:19:06.078Z,,,54,,,,,,378.49599998897247,response,,,,100,,,,,,Space,keypress(Space),,,,,-- --- ---- --- French ----- ------- ---- -- --- ------- --<br>------- ---------- ------ -- ----- -- ----- -- ---- ------<br>--- ----- --- --- ------ -------- ----- --- ------ ----- --<br>----- ----- ---------- --- --- ------ ------ ---- -- ------<br>------- --- ------ ----- --- ---- ------- -- ---- --- --<br>------- ------,24087.215000006836,24086.409999988973,23691.335,23703.554999956395,23707.914,24091.54,,4,French
screen,html.Screen,2_1_5,2021-03-07T04:19:06.494Z,,,54,,,,,,410.81999998403626,response,,,,100,,,,,,Space,keypress(Space),,,,,-- --- ---- --- ------ crown ------- ---- -- --- ------- --<br>------- ---------- ------ -- ----- -- ----- -- ---- ------<br>--- ----- --- --- ------ -------- ----- --- ------ ----- --<br>----- ----- ---------- --- --- ------ ------ ---- -- ------<br>------- --- ------ ----- --- ---- ------- -- ---- --- --<br>------- ------,24503.19999997737,24502.359999984037,24074.917,24087.475000007544,24091.54,24508.49,,5,crown
screen,html.Screen,2_1_6,2021-03-07T04:19:06.878Z,,,54,,,,,,377.46999998506,response,,,,100,,,,,,Space,keypress(Space),,,,,-- --- ---- --- ------ ----- secured ---- -- --- ------- --<br>------- ---------- ------ -- ----- -- ----- -- ---- ------<br>--- ----- --- --- ------ -------- ----- --- ------ ----- --<br>----- ----- ---------- --- --- ------ ------ ---- -- ------<br>------- --- ------ ----- --- ---- ------- -- ---- --- --<br>------- ------,24886.484999966342,24885.95999998506,24491.873,24503.469999996014,24508.49,24891.931,,6,secured
screen,html.Screen,2_1_7,2021-03-07T04:19:07.254Z,,,54,,,,,,370.2789999571214,response,,,,100,,,,,,Space,keypress(Space),,,,,-- --- ---- --- ------ ----- ------- much -- --- ------- --<br>------- ---------- ------ -- ----- -- ----- -- ---- ------<br>--- ----- --- --- ------ -------- ----- --- ------ ----- --<br>----- ----- ---------- --- --- ------ ------ ---- -- ------<br>------- --- ------ ----- --- ---- ------- -- ---- --- --<br>------- ------,25263.074999966193,25262.209999957122,24875.446,24886.59499998903,24891.931,25275.558,,7,much
screen,html.Screen,2_1_8,2021-03-07T04:19:07.598Z,,,54,,,,,,330.69699999150544,response,,,,100,,,,,,Space,keypress(Space),,,,,-- --- ---- --- ------ ----- ------- ---- of --- ------- --<br>------- ---------- ------ -- ----- -- ----- -- ---- ------<br>--- ----- --- --- ------ -------- ----- --- ------ ----- --<br>----- ----- ---------- --- --- ------ ------ ---- -- ------<br>------- --- ------ ----- --- ---- ------- -- ---- --- --<br>------- ------,25607.224999985192,25606.254999991506,25259.025,25263.3199999691,25275.558,25609.202,,8,of
screen,html.Screen,2_1_9,2021-03-07T04:19:08.014Z,,,54,,,,,,412.95799999316296,response,,,,100,,,,,,Space,keypress(Space),,,,,-- --- ---- --- ------ ----- ------- ---- -- its ------- --<br>------- ---------- ------ -- ----- -- ----- -- ---- ------<br>--- ----- --- --- ------ -------- ----- --- ------ ----- --<br>----- ----- ---------- --- --- ------ ------ ---- -- ------<br>------- --- ------ ----- --- ---- ------- -- ---- --- --<br>------- ------,26023.09500001138,26022.159999993164,25592.559,25607.469999988098,25609.202,26026.087,,9,its
screen,html.Screen,2_1_10,2021-03-07T04:19:08.430Z,,,54,,,,,,412.00300001056166,response,,,,100,,,,,,Space,keypress(Space),,,,,-- --- ---- --- ------ ----- ------- ---- -- --- revenue --<br>------- ---------- ------ -- ----- -- ----- -- ---- ------<br>--- ----- --- --- ------ -------- ----- --- ------ ----- --<br>----- ----- ---------- --- --- ------ ------ ---- -- ------<br>------- --- ------ ----- --- ---- ------- -- ---- --- --<br>------- ------,26439.01500001084,26438.09000001056,26009.535,26023.33999995608,26026.087,26443.083,,10,revenue
screen,html.Screen,2_1_11,2021-03-07T04:19:08.814Z,,,54,,,,,,378.93699996323267,response,,,,100,,,,,,Space,keypress(Space),,,,,-- --- ---- --- ------ ----- ------- ---- -- --- ------- by<br>------- ---------- ------ -- ----- -- ----- -- ---- ------<br>--- ----- --- --- ------ -------- ----- --- ------ ----- --<br>----- ----- ---------- --- --- ------ ------ ---- -- ------<br>------- --- ------ ----- --- ---- ------- -- ---- --- --<br>------- ------,26822.954999981448,26822.01999996323,26426.461,26439.269999973476,26443.083,26826.667,,11,by
screen,html.Screen,2_1_12,2021-03-07T04:19:09.166Z,,,54,,,,,,347.2730000078591,response,,,,100,,,,,,Space,keypress(Space),,,,,-- --- ---- --- ------ ----- ------- ---- -- --- ------- --<br>issuing ---------- ------ -- ----- -- ----- -- ---- ------<br>--- ----- --- --- ------ -------- ----- --- ------ ----- --<br>----- ----- ---------- --- --- ------ ------ ---- -- ------<br>------- --- ------ ----- --- ---- ------- -- ---- --- --<br>------- ------,27174.859999970067,27173.94000000786,26810.056,26823.199999984354,26826.667,27176.892,,12,issuing
screen,html.Screen,2_1_13,2021-03-07T04:19:09.510Z,,,54,,,,,,340.99299997928756,response,,,,100,,,,,,Space,keypress(Space),,,,,-- --- ---- --- ------ ----- ------- ---- -- --- ------- --<br>------- government ------ -- ----- -- ----- -- ---- ------<br>--- ----- --- --- ------ -------- ----- --- ------ ----- --<br>----- ----- ---------- --- --- ------ ------ ---- -- ------<br>------- --- ------ ----- --- ---- ------- -- ---- --- --<br>------- ------,27518.82499997737,27517.884999979287,27160.267,27175.09999999311,27176.892,27527.053,,13,government
screen,html.Screen,2_1_14,2021-03-07T04:19:09.958Z,,,54,,,,,,438.7470000054018,response,,,,100,,,,,,Space,keypress(Space),,,,,-- --- ---- --- ------ ----- ------- ---- -- --- ------- --<br>------- ---------- bonds. -- ----- -- ----- -- ---- ------<br>--- ----- --- --- ------ -------- ----- --- ------ ----- --<br>----- ----- ---------- --- --- ------ ------ ---- -- ------<br>------- --- ------ ----- --- ---- ------- -- ---- --- --<br>------- ------,27966.669999994338,27965.8000000054,27510.494,27519.084999978077,27527.053,27977.373,,14,bonds.
screen,html.Screen,2_1_15,2021-03-07T04:19:10.318Z,,,54,,,,,,348.3070000090156,response,,,,100,,,,,,Space,keypress(Space),,,,,-- --- ---- --- ------ ----- ------- ---- -- --- ------- --<br>------- ---------- ------ In ----- -- ----- -- ---- ------<br>--- ----- --- --- ------ -------- ----- --- ------ ----- --<br>----- ----- ---------- --- --- ------ ------ ---- -- ------<br>------- --- ------ ----- --- ---- ------- -- ---- --- --<br>------- ------,28326.464999991003,28325.680000009015,27960.805,27966.914999997243,27977.373,28344.29,,15,In
screen,html.Screen,2_1_16,2021-03-07T04:19:10.670Z,,,54,,,,,,333.4849999891958,response,,,,100,,,,,,Space,keypress(Space),,,,,"-- --- ---- --- ------ ----- ------- ---- -- --- ------- --<br>------- ---------- ------ -- 1727, -- ----- -- ---- ------<br>--- ----- --- --- ------ -------- ----- --- ------ ----- --<br>----- ----- ---------- --- --- ------ ------ ---- -- ------<br>------- --- ------ ----- --- ---- ------- -- ---- --- --<br>------- ------",28678.649999957997,28677.774999989197,28311.005,28326.704999955837,28344.29,28694.565,,16,"1727,"
screen,html.Screen,2_1_17,2021-03-07T04:19:11.062Z,,,54,,,,,,375.134999992737,response,,,,100,,,,,,Space,keypress(Space),,,,,-- --- ---- --- ------ ----- ------- ---- -- --- ------- --<br>------- ---------- ------ -- ----- in ----- -- ---- ------<br>--- ----- --- --- ------ -------- ----- --- ------ ----- --<br>----- ----- ---------- --- --- ------ ------ ---- -- ------<br>------- --- ------ ----- --- ---- ------- -- ---- --- --<br>------- ------,29070.524999988265,29069.699999992736,28677.892,28678.899999998976,28694.565,29078.017,,17,in
screen,html.Screen,2_1_18,2021-03-07T04:19:11.430Z,,,54,,,,,,359.487999979865,response,,,,100,,,,,,Space,keypress(Space),,,,,-- --- ---- --- ------ ----- ------- ---- -- --- ------- --<br>------- ---------- ------ -- ----- -- order -- ---- ------<br>--- ----- --- --- ------ -------- ----- --- ------ ----- --<br>----- ----- ---------- --- --- ------ ------ ---- -- ------<br>------- --- ------ ----- --- ---- ------- -- ---- --- --<br>------- ------,29438.314999977592,29437.504999979865,29061.5,29070.765000011306,29078.017,29444.948,,18,order
screen,html.Screen,2_1_19,2021-03-07T04:19:11.830Z,,,54,,,,,,392.57200000094963,response,,,,100,,,,,,Space,keypress(Space),,,,,-- --- ---- --- ------ ----- ------- ---- -- --- ------- --<br>------- ---------- ------ -- ----- -- ----- to ---- ------<br>--- ----- --- --- ------ -------- ----- --- ------ ----- --<br>----- ----- ---------- --- --- ------ ------ ---- -- ------<br>------- --- ------ ----- --- ---- ------- -- ---- --- --<br>------- ------,29838.38500001002,29837.52000000095,29428.403,29438.564999960363,29444.948,29845.216,,19,to
screen,html.Screen,2_1_20,2021-03-07T04:19:12.198Z,,,54,,,,,,360.30399995950575,response,,,,100,,,,,,Space,keypress(Space),,,,,-- --- ---- --- ------ ----- ------- ---- -- --- ------- --<br>------- ---------- ------ -- ----- -- ----- -- save ------<br>--- ----- --- --- ------ -------- ----- --- ------ ----- --<br>----- ----- ---------- --- --- ------ ------ ---- -- ------<br>------- --- ------ ----- --- ---- ------- -- ---- --- --<br>------- ------,30206.375000008848,30205.519999959506,29828.691,29838.630000012927,29845.216,30212.212,,20,save
screen,html.Screen,2_1_21,2021-03-07T04:19:12.590Z,,,54,,,,,,385.2679999967222,response,,,,100,,,,,,Space,keypress(Space),,,,,"-- --- ---- --- ------ ----- ------- ---- -- --- ------- --<br>------- ---------- ------ -- ----- -- ----- -- ---- money,<br>--- ----- --- --- ------ -------- ----- --- ------ ----- --<br>----- ----- ---------- --- --- ------ ------ ---- -- ------<br>------- --- ------ ----- --- ---- ------- -- ---- --- --<br>------- ------",30598.360000003595,30597.47999999672,30195.548,30206.620000011753,30212.212,30612.5,,21,"money,"
screen,html.Screen,2_1_22,2021-03-07T04:19:13.013Z,,,54,,,,,,408.7900000042282,response,,,,100,,,,,,Space,keypress(Space),,,,,-- --- ---- --- ------ ----- ------- ---- -- --- ------- --<br>------- ---------- ------ -- ----- -- ----- -- ---- ------<br>the ----- --- --- ------ -------- ----- --- ------ ----- --<br>----- ----- ---------- --- --- ------ ------ ---- -- ------<br>------- --- ------ ----- --- ---- ------- -- ---- --- --<br>------- ------,31022.134999977425,31021.29000000423,30595.877,30598.609999986365,30612.5,31029.25,,22,the
screen,html.Screen,2_1_23,2021-03-07T04:19:13.357Z,,,54,,,,,,336.0749999624677,response,,,,100,,,,,,Space,keypress(Space),,,,,-- --- ---- --- ------ ----- ------- ---- -- --- ------- --<br>------- ---------- ------ -- ----- -- ----- -- ---- ------<br>--- state --- --- ------ -------- ----- --- ------ ----- --<br>----- ----- ---------- --- --- ------ ------ ---- -- ------<br>------- --- ------ ----- --- ---- ------- -- ---- --- --<br>------- ------,31366.134999960195,31365.324999962468,31012.744,31022.369999962393,31029.25,31379.588,,23,state
screen,html.Screen,2_1_24,2021-03-07T04:19:13.749Z,,,54,,,,,,377.5269999857883,response,,,,100,,,,,,Space,keypress(Space),,,,,-- --- ---- --- ------ ----- ------- ---- -- --- ------- --<br>------- ---------- ------ -- ----- -- ----- -- ---- ------<br>--- ----- cut --- ------ -------- ----- --- ------ ----- --<br>----- ----- ---------- --- --- ------ ------ ---- -- ------<br>------- --- ------ ----- --- ---- ------- -- ---- --- --<br>------- ------,31757.90500000585,31757.114999985788,31363.018,31366.385000001173,31379.588,31763.208,,24,cut
screen,html.Screen,2_1_25,2021-03-07T04:19:14.141Z,,,54,,,,,,385.88199996259937,response,,,,100,,,,,,Space,keypress(Space),,,,,-- --- ---- --- ------ ----- ------- ---- -- --- ------- --<br>------- ---------- ------ -- ----- -- ----- -- ---- ------<br>--- ----- --- the ------ -------- ----- --- ------ ----- --<br>----- ----- ---------- --- --- ------ ------ ---- -- ------<br>------- --- ------ ----- --- ---- ------- -- ---- --- --<br>------- ------,32149.890000000596,32149.089999962598,31746.604,31758.150000008754,31763.208,32163.504,,25,the
screen,html.Screen,2_1_26,2021-03-07T04:19:14.533Z,,,54,,,,,,377.55599995954253,response,,,,100,,,,,,Space,keypress(Space),,,,,-- --- ---- --- ------ ----- ------- ---- -- --- ------- --<br>------- ---------- ------ -- ----- -- ----- -- ---- ------<br>--- ----- --- --- bonds' -------- ----- --- ------ ----- --<br>----- ----- ---------- --- --- ------ ------ ---- -- ------<br>------- --- ------ ----- --- ---- ------- -- ---- --- --<br>------- ------,32541.85999999754,32541.059999959543,32146.867,32150.1200000057,32163.504,32547.038,,26,bonds'
screen,html.Screen,2_1_27,2021-03-07T04:19:14.957Z,,,54,,,,,,418.0520000124234,response,,,,100,,,,,,Space,keypress(Space),,,,,-- --- ---- --- ------ ----- ------- ---- -- --- ------- --<br>------- ---------- ------ -- ----- -- ----- -- ---- ------<br>--- ----- --- --- ------ interest ----- --- ------ ----- --<br>----- ----- ---------- --- --- ------ ------ ---- -- ------<br>------- --- ------ ----- --- ---- ------- -- ---- --- --<br>------- ------,32965.98499995889,32965.090000012424,32530.439,32542.09499998251,32547.038,32980.71,,27,interest
screen,html.Screen,2_1_28,2021-03-07T04:19:15.350Z,,,54,,,,,,377.2050000005038,response,,,,100,,,,,,Space,keypress(Space),,,,,-- --- ---- --- ------ ----- ------- ---- -- --- ------- --<br>------- ---------- ------ -- ----- -- ----- -- ---- ------<br>--- ----- --- --- ------ -------- rate. --- ------ ----- --<br>----- ----- ---------- --- --- ------ ------ ---- -- ------<br>------- --- ------ ----- --- ---- ------- -- ---- --- --<br>------- ------,33358.754999993835,33357.9150000005,32964.083,32966.2449999596,32980.71,33364.284,,28,rate.
screen,html.Screen,2_1_29,2021-03-07T04:19:15.797Z,,,54,,,,,,440.64100000400504,response,,,,100,,,,,,Space,keypress(Space),,,,,-- --- ---- --- ------ ----- ------- ---- -- --- ------- --<br>------- ---------- ------ -- ----- -- ----- -- ---- ------<br>--- ----- --- --- ------ -------- ----- The ------ ----- --<br>----- ----- ---------- --- --- ------ ------ ---- -- ------<br>------- --- ------ ----- --- ---- ------- -- ---- --- --<br>------- ------,33805.790000013076,33804.925000004005,33347.643,33358.99499995867,33364.284,33814.454,,29,The
screen,html.Screen,2_1_30,2021-03-07T04:19:16.229Z,,,54,,,,,,422.39599998659105,response,,,,100,,,,,,Space,keypress(Space),,,,,-- --- ---- --- ------ ----- ------- ---- -- --- ------- --<br>------- ---------- ------ -- ----- -- ----- -- ---- ------<br>--- ----- --- --- ------ -------- ----- --- market ----- --<br>----- ----- ---------- --- --- ------ ------ ---- -- ------<br>------- --- ------ ----- --- ---- ------- -- ---- --- --<br>------- ------,34237.66499996418,34236.84999998659,33797.923,33806.034999957774,33814.454,34248.153,,30,market
screen,html.Screen,2_1_31,2021-03-07T04:19:16.653Z,,,54,,,,,,412.60699999884673,response,,,,100,,,,,,Space,keypress(Space),,,,,-- --- ---- --- ------ ----- ------- ---- -- --- ------- --<br>------- ---------- ------ -- ----- -- ----- -- ---- ------<br>--- ----- --- --- ------ -------- ----- --- ------ value --<br>----- ----- ---------- --- --- ------ ------ ---- -- ------<br>------- --- ------ ----- --- ---- ------- -- ---- --- --<br>------- ------,34661.5799999563,34660.759999998845,34231.561,34237.90999996709,34248.153,34665.1,,31,value
screen,html.Screen,2_1_32,2021-03-07T04:19:17.069Z,,,54,,,,,,411.52499998696294,response,,,,100,,,,,,Space,keypress(Space),,,,,-- --- ---- --- ------ ----- ------- ---- -- --- ------- --<br>------- ---------- ------ -- ----- -- ----- -- ---- ------<br>--- ----- --- --- ------ -------- ----- --- ------ ----- of<br>----- ----- ---------- --- --- ------ ------ ---- -- ------<br>------- --- ------ ----- --- ---- ------- -- ---- --- --<br>------- ------,35077.339999959804,35076.62499998696,34648.503,34661.81499999948,34665.1,35082.05,,32,of
screen,html.Screen,2_1_33,2021-03-07T04:19:17.477Z,,,54,,,,,,402.5949999604345,response,,,,100,,,,,,Space,keypress(Space),,,,,-- --- ---- --- ------ ----- ------- ---- -- --- ------- --<br>------- ---------- ------ -- ----- -- ----- -- ---- ------<br>--- ----- --- --- ------ -------- ----- --- ------ ----- --<br>these ----- ---------- --- --- ------ ------ ---- -- ------<br>------- --- ------ ----- --- ---- ------- -- ---- --- --<br>------- ------,35485.504999989644,35484.64499996044,35065.457,35077.57500000298,35082.05,35498.967,,33,these
screen,html.Screen,2_1_34,2021-03-07T04:19:17.861Z,,,54,,,,,,369.6329999870577,response,,,,100,,,,,,Space,keypress(Space),,,,,-- --- ---- --- ------ ----- ------- ---- -- --- ------- --<br>------- ---------- ------ -- ----- -- ----- -- ---- ------<br>--- ----- --- --- ------ -------- ----- --- ------ ----- --<br>----- bonds ---------- --- --- ------ ------ ---- -- ------<br>------- --- ------ ----- --- ---- ------- -- ---- --- --<br>------- ------,35869.44999999832,35868.599999987055,35482.249,35485.754999972414,35498.967,35882.557,,34,bonds
screen,html.Screen,2_1_35,2021-03-07T04:19:18.285Z,,,54,,,,,,409.9879999747791,response,,,,100,,,,,,Space,keypress(Space),,,,,"-- --- ---- --- ------ ----- ------- ---- -- --- ------- --<br>------- ---------- ------ -- ----- -- ----- -- ---- ------<br>--- ----- --- --- ------ -------- ----- --- ------ ----- --<br>----- ----- plummeted, --- --- ------ ------ ---- -- ------<br>------- --- ------ ----- --- ---- ------- -- ---- --- --<br>------- ------",36293.42499998165,36292.54499997478,35865.966,35869.69500000123,35882.557,36299.49,,35,"plummeted,"
screen,html.Screen,2_1_36,2021-03-07T04:19:18.733Z,,,54,,,,,,440.989999978563,response,,,,100,,,,,,Space,keypress(Space),,,,,-- --- ---- --- ------ ----- ------- ---- -- --- ------- --<br>------- ---------- ------ -- ----- -- ----- -- ---- ------<br>--- ----- --- --- ------ -------- ----- --- ------ ----- --<br>----- ----- ---------- and --- ------ ------ ---- -- ------<br>------- --- ------ ----- --- ---- ------- -- ---- --- --<br>------- ------,36741.34499998763,36740.47999997856,36282.909,36293.66999998456,36299.49,36749.783,,36,and
screen,html.Screen,2_1_37,2021-03-07T04:19:19.165Z,,,54,,,,,,422.6269999992146,response,,,,100,,,,,,Space,keypress(Space),,,,,-- --- ---- --- ------ ----- ------- ---- -- --- ------- --<br>------- ---------- ------ -- ----- -- ----- -- ---- ------<br>--- ----- --- --- ------ -------- ----- --- ------ ----- --<br>----- ----- ---------- --- the ------ ------ ---- -- ------<br>------- --- ------ ----- --- ---- ------- -- ---- --- --<br>------- ------,37173.27999998815,37172.40999999922,36733.223,36741.58999999054,36749.783,37183.401,,37,the
screen,html.Screen,2_1_38,2021-03-07T04:19:19.636Z,,,54,,,,,,460.94899995865126,response,,,,100,,,,,,Space,keypress(Space),,,,,-- --- ---- --- ------ ----- ------- ---- -- --- ------- --<br>------- ---------- ------ -- ----- -- ----- -- ---- ------<br>--- ----- --- --- ------ -------- ----- --- ------ ----- --<br>----- ----- ---------- --- --- market ------ ---- -- ------<br>------- --- ------ ----- --- ---- ------- -- ---- --- --<br>------- ------,37645.184999972116,37644.34999995865,37166.823,37173.529999970924,37183.401,37650.42,,38,market
screen,html.Screen,2_1_39,2021-03-07T04:19:20.060Z,,,54,,,,,,417.7399999661575,response,,,,100,,,,,,Space,keypress(Space),,,,,-- --- ---- --- ------ ----- ------- ---- -- --- ------- --<br>------- ---------- ------ -- ----- -- ----- -- ---- ------<br>--- ----- --- --- ------ -------- ----- --- ------ ----- --<br>----- ----- ---------- --- --- ------ became ---- -- ------<br>------- --- ------ ----- --- ---- ------- -- ---- --- --<br>------- ------,38068.97999998182,38068.159999966156,37633.813,37645.42499999516,37650.42,38084.046,,39,became
screen,html.Screen,2_1_40,2021-03-07T04:19:20.492Z,,,54,,,,,,416.0240000091435,response,,,,100,,,,,,Space,keypress(Space),,,,,-- --- ---- --- ------ ----- ------- ---- -- --- ------- --<br>------- ---------- ------ -- ----- -- ----- -- ---- ------<br>--- ----- --- --- ------ -------- ----- --- ------ ----- --<br>----- ----- ---------- --- --- ------ ------ wary -- ------<br>------- --- ------ ----- --- ---- ------- -- ---- --- --<br>------- ------,38500.8899999666,38500.070000009146,38067.423,38069.22000000486,38084.046,38517.666,,40,wary
screen,html.Screen,2_1_41,2021-03-07T04:19:20.924Z,,,54,,,,,,414.3289999917324,response,,,,100,,,,,,Space,keypress(Space),,,,,-- --- ---- --- ------ ----- ------- ---- -- --- ------- --<br>------- ---------- ------ -- ----- -- ----- -- ---- ------<br>--- ----- --- --- ------ -------- ----- --- ------ ----- --<br>----- ----- ---------- --- --- ------ ------ ---- of ------<br>------- --- ------ ----- --- ---- ------- -- ---- --- --<br>------- ------,38932.80499998946,38931.99499999173,38501.011,38501.13499996951,38517.666,38934.555,,41,of
screen,html.Screen,2_1_42,2021-03-07T04:19:21.396Z,,,54,,,,,,469.44000000057713,response,,,,100,,,,,,Space,keypress(Space),,,,,-- --- ---- --- ------ ----- ------- ---- -- --- ------- --<br>------- ---------- ------ -- ----- -- ----- -- ---- ------<br>--- ----- --- --- ------ -------- ----- --- ------ ----- --<br>----- ----- ---------- --- --- ------ ------ ---- -- French<br>------- --- ------ ----- --- ---- ------- -- ---- --- --<br>------- ------,39404.804999998305,39403.99500000058,38917.963,38933.039999974426,38934.555,39418.259,,42,French
screen,html.Screen,2_1_43,2021-03-07T04:19:21.852Z,,,54,,,,,,441.6360000014174,response,,,,100,,,,,,Space,keypress(Space),,,,,-- --- ---- --- ------ ----- ------- ---- -- --- ------- --<br>------- ---------- ------ -- ----- -- ----- -- ---- ------<br>--- ----- --- --- ------ -------- ----- --- ------ ----- --<br>----- ----- ---------- --- --- ------ ------ ---- -- ------<br>credit. --- ------ ----- --- ---- ------- -- ---- --- --<br>------- ------,39860.69999996107,39859.895000001416,39401.591,39405.05000000121,39418.259,39868.415,,43,credit.
screen,html.Screen,2_1_44,2021-03-07T04:19:22.260Z,,,54,,,,,,399.51499997269275,response,,,,100,,,,,,Space,keypress(Space),,,,,-- --- ---- --- ------ ----- ------- ---- -- --- ------- --<br>------- ---------- ------ -- ----- -- ----- -- ---- ------<br>--- ----- --- --- ------ -------- ----- --- ------ ----- --<br>----- ----- ---------- --- --- ------ ------ ---- -- ------<br>------- The ------ ----- --- ---- ------- -- ---- --- --<br>------- ------,40268.8049999997,40267.92999997269,39851.921,39860.94499996398,39868.415,40285.507,,44,The
screen,html.Screen,2_1_45,2021-03-07T04:19:22.700Z,,,54,,,,,,422.34799998601375,response,,,,100,,,,,,Space,keypress(Space),,,,,-- --- ---- --- ------ ----- ------- ---- -- --- ------- --<br>------- ---------- ------ -- ----- -- ----- -- ---- ------<br>--- ----- --- --- ------ -------- ----- --- ------ ----- --<br>----- ----- ---------- --- --- ------ ------ ---- -- ------<br>------- --- French ----- --- ---- ------- -- ---- --- --<br>------- ------,40708.669999963604,40707.85499998601,40268.85,40269.05499998247,40285.507,40719.053,,45,French
screen,html.Screen,2_1_46,2021-03-07T04:19:23.148Z,,,54,,,,,,436.6869999583141,response,,,,100,,,,,,Space,keypress(Space),,,,,-- --- ---- --- ------ ----- ------- ---- -- --- ------- --<br>------- ---------- ------ -- ----- -- ----- -- ---- ------<br>--- ----- --- --- ------ -------- ----- --- ------ ----- --<br>----- ----- ---------- --- --- ------ ------ ---- -- ------<br>------- --- ------ state --- ---- ------- -- ---- --- --<br>------- ------,41156.59999998752,41155.739999958314,40702.474,40708.90500000678,40719.053,41169.36,,46,state
screen,html.Screen,2_1_47,2021-03-07T04:19:23.548Z,,,54,,,,,,386.289999994784,response,,,,100,,,,,,Space,keypress(Space),,,,,-- --- ---- --- ------ ----- ------- ---- -- --- ------- --<br>------- ---------- ------ -- ----- -- ----- -- ---- ------<br>--- ----- --- --- ------ -------- ----- --- ------ ----- --<br>----- ----- ---------- --- --- ------ ------ ---- -- ------<br>------- --- ------ ----- was ---- ------- -- ---- --- --<br>------- ------,41556.449999974575,41555.649999994785,41152.773,41156.84000001056,41169.36,41569.563,,47,was
screen,html.Screen,2_1_48,2021-03-07T04:19:24.068Z,,,54,,,,,,506.09199999327393,response,,,,100,,,,,,Space,keypress(Space),,,,,-- --- ---- --- ------ ----- ------- ---- -- --- ------- --<br>------- ---------- ------ -- ----- -- ----- -- ---- ------<br>--- ----- --- --- ------ -------- ----- --- ------ ----- --<br>----- ----- ---------- --- --- ------ ------ ---- -- ------<br>------- --- ------ ----- --- left ------- -- ---- --- --<br>------- ------,42076.42499997746,42075.654999993276,41553.023,41556.68499995954,41569.563,42086.629,,48,left
screen,html.Screen,2_1_49,2021-03-07T04:19:24.476Z,,,54,,,,,,396.87099997299083,response,,,,100,,,,,,Space,keypress(Space),,,,,-- --- ---- --- ------ ----- ------- ---- -- --- ------- --<br>------- ---------- ------ -- ----- -- ----- -- ---- ------<br>--- ----- --- --- ------ -------- ----- --- ------ ----- --<br>----- ----- ---------- --- --- ------ ------ ---- -- ------<br>------- --- ------ ----- --- ---- without -- ---- --- --<br>------- ------,42484.28999999305,42483.49999997299,42070.044,42076.6650000005,42086.629,42486.926,,49,without
screen,html.Screen,2_1_50,2021-03-07T04:19:24.876Z,,,54,,,,,,396.57399999627523,response,,,,100,,,,,,Space,keypress(Space),,,,,-- --- ---- --- ------ ----- ------- ---- -- --- ------- --<br>------- ---------- ------ -- ----- -- ----- -- ---- ------<br>--- ----- --- --- ------ -------- ----- --- ------ ----- --<br>----- ----- ---------- --- --- ------ ------ ---- -- ------<br>------- --- ------ ----- --- ---- ------- an ---- --- --<br>------- ------,42884.38000000315,42883.499999996275,42470.258,42484.529999957886,42486.926,42887.125,,50,an
screen,html.Screen,2_1_51,2021-03-07T04:19:25.307Z,,,54,,,,,,428.2699999832548,response,,,,100,,,,,,Space,keypress(Space),,,,,-- --- ---- --- ------ ----- ------- ---- -- --- ------- --<br>------- ---------- ------ -- ----- -- ----- -- ---- ------<br>--- ----- --- --- ------ -------- ----- --- ------ ----- --<br>----- ----- ---------- --- --- ------ ------ ---- -- ------<br>------- --- ------ ----- --- ---- ------- -- easy --- --<br>------- ------,43316.20000000112,43315.394999983255,42870.573,42884.62500000605,42887.125,43320.803,,51,easy
screen,html.Screen,2_1_52,2021-03-07T04:19:25.716Z,,,54,,,,,,403.3719999811874,response,,,,100,,,,,,Space,keypress(Space),,,,,-- --- ---- --- ------ ----- ------- ---- -- --- ------- --<br>------- ---------- ------ -- ----- -- ----- -- ---- ------<br>--- ----- --- --- ------ -------- ----- --- ------ ----- --<br>----- ----- ---------- --- --- ------ ------ ---- -- ------<br>------- --- ------ ----- --- ---- ------- -- ---- way --<br>------- ------,43724.99499999685,43724.17499998119,43304.192,43316.434999986086,43320.803,43737.756,,52,way
screen,html.Screen,2_1_53,2021-03-07T04:19:26.187Z,,,54,,,,,,457.53400000329566,response,,,,100,,,,,,Space,keypress(Space),,,,,-- --- ---- --- ------ ----- ------- ---- -- --- ------- --<br>------- ---------- ------ -- ----- -- ----- -- ---- ------<br>--- ----- --- --- ------ -------- ----- --- ------ ----- --<br>----- ----- ---------- --- --- ------ ------ ---- -- ------<br>------- --- ------ ----- --- ---- ------- -- ---- --- of<br>------- ------,44196.09499996295,44195.2900000033,43721.128,43725.234999961685,43737.756,44204.683,,53,of
screen,html.Screen,2_1_54,2021-03-07T04:19:26.627Z,,,54,,,,,,430.45199998953467,response,,,,100,,,,,,Space,keypress(Space),,,,,-- --- ---- --- ------ ----- ------- ---- -- --- ------- --<br>------- ---------- ------ -- ----- -- ----- -- ---- ------<br>--- ----- --- --- ------ -------- ----- --- ------ ----- --<br>----- ----- ---------- --- --- ------ ------ ---- -- ------<br>------- --- ------ ----- --- ---- ------- -- ---- --- --<br>raising ------,44635.93499996932,44635.13499998953,44188.099,44196.33999996586,44204.683,44638.327,,54,raising
screen,html.Screen,2_1_55,2021-03-07T04:19:27.299Z,,,54,,,,,,668.6479999558578,response,,,,100,,,,,,Space,keypress(Space),,,,,-- --- ---- --- ------ ----- ------- ---- -- --- ------- --<br>------- ---------- ------ -- ----- -- ----- -- ---- ------<br>--- ----- --- --- ------ -------- ----- --- ------ ----- --<br>----- ----- ---------- --- --- ------ ------ ---- -- ------<br>------- --- ------ ----- --- ---- ------- -- ---- --- --<br>------- money.,45307.77999997372,45306.974999955855,44621.706,44636.1700000125,44638.327,45322.122,,55,money.
Item 100,flow.Loop,2_1,2021-03-07T04:19:27.303Z,,,,,,,,,23450.222999955855,completion,,,,,,,,,,,,,,,,,45311.76000001142,45306.974999955855,21823.383,21831.754999991972,21856.752,45322.122,,,
Question 1,html.Screen,2_2,2021-03-07T04:19:30.128Z,,,,,,true,TRUE,,2813.367999956914,response,,,,,,,,,,TRUE,click #choice-1,,,,,,48136.29499997478,48135.48999995692,45305.532,45312.02499999199,45322.122,48140.566,,,
Question 2,html.Screen,2_3,2021-03-07T04:19:33.119Z,,,,,,true,FALSE,,2986.443999996518,response,,,,,,,,,,FALSE,click #choice-2,,,,,,51127.80999997631,51127.00999999652,48123.986,48136.44999999087,48140.566,51142.545,,,
End of Practice,html.Page,2_4,2021-03-07T04:19:34.944Z,,,,,,,,,1809.759999984337,form submission,,,,,,,,,,,,,,,,,52952.68499996746,52952.304999984335,51125.944,51127.944999956526,51142.545,52977.105,,,
Practice,flow.Sequence,2,2021-03-07T04:19:34.944Z,,,,,,,,,38116.952999984336,completion,,,,,,,,,,,,,,,,,52952.91499997256,52952.304999984335,14818.82,14823.800000012852,14835.352,52977.105,,,
Holding screen,html.Screen,3_0_0,2021-03-07T04:19:41.958Z,,,,,,,,,7004.443999999996,timeout,,,,,,,,,,,,,,,,,59966.79499995662,59964.997,52960.434,52953.1100000022,52977.105,59981.549,,,
screen,html.Screen,3_0_1_0,2021-03-07T04:19:48.962Z,,,7,,,,,,7004.615000000005,timeout,,,,3,,,,,,,,,,,,Dorothy ------ ----- --- ------ ------ --- --------- ---<br>---- -------- --------- --- ---------- --- -------- -------<br>--- -------- -- --- ---- ----- ---- ----- ------- --- -<br>--- ------ --- ------ --- --- -------- --- --- ----------<br>---- ----- --- --- ---- ----- -- -------- --- --- ---- ----<br>------- ------ --- ------ --- --- -----,66970.32500000205,66969.579,59964.997,59967.11500000674,59981.549,66986.164,,0,Dorothy
screen,html.Screen,3_0_1_1,2021-03-07T04:19:54.096Z,,,7,,,,,,5117.840999971944,response,,,,3,,,,,,Space,keypress(Space),,,,,------- didn't ----- --- ------ ------ --- --------- ---<br>---- -------- --------- --- ---------- --- -------- -------<br>--- -------- -- --- ---- ----- ---- ----- ------- --- -<br>--- ------ --- ------ --- --- -------- --- --- ----------<br>---- ----- --- --- ---- ----- -- -------- --- --- ---- ----<br>------- ------ --- ------ --- --- -----,72104.99999998137,72104.00499997195,66969.579,66970.62999999616,66986.164,72106.363,,1,didn't
screen,html.Screen,3_0_1_2,2021-03-07T04:19:54.503Z,,,7,,,,,,404.45199998690805,response,,,,3,,,,,,Space,keypress(Space),,,,,------- ------ know. --- ------ ------ --- --------- ---<br>---- -------- --------- --- ---------- --- -------- -------<br>--- -------- -- --- ---- ----- ---- ----- ------- --- -<br>--- ------ --- ------ --- --- -------- --- --- ----------<br>---- ----- --- --- ---- ----- -- -------- --- --- ---- ----<br>------- ------ --- ------ --- --- -----,72511.65000000037,72510.8149999869,72090.372,72105.28499999782,72106.363,72523.229,,2,know.
screen,html.Screen,3_0_1_3,2021-03-07T04:19:54.927Z,,,7,,,,,,411.6009999837697,response,,,,3,,,,,,Space,keypress(Space),,,,,------- ------ ----- She ------ ------ --- --------- ---<br>---- -------- --------- --- ---------- --- -------- -------<br>--- -------- -- --- ---- ----- ---- ----- ------- --- -<br>--- ------ --- ------ --- --- -------- --- --- ----------<br>---- ----- --- --- ---- ----- -- -------- --- --- ---- ----<br>------- ------ --- ------ --- --- -----,72935.66499999724,72934.82999998378,72506.656,72511.90499996301,72523.229,72940.215,,3,She
screen,html.Screen,3_0_1_4,2021-03-07T04:19:55.399Z,,,7,,,,,,466.52999998567975,response,,,,3,,,,,,Space,keypress(Space),,,,,------- ------ ----- --- looked ------ --- --------- ---<br>---- -------- --------- --- ---------- --- -------- -------<br>--- -------- -- --- ---- ----- ---- ----- ------- --- -<br>--- ------ --- ------ --- --- -------- --- --- ----------<br>---- ----- --- --- ---- ----- -- -------- --- --- ---- ----<br>------- ------ --- ------ --- --- -----,73407.5549999834,73406.74499998568,72923.574,72935.91000000015,72940.215,73423.862,,4,looked
screen,html.Screen,3_0_1_5,2021-03-07T04:19:55.767Z,,,7,,,,,,350.7829999976966,response,,,,3,,,,,,Space,keypress(Space),,,,,------- ------ ----- --- ------ around --- --------- ---<br>---- -------- --------- --- ---------- --- -------- -------<br>--- -------- -- --- ---- ----- ---- ----- ------- --- -<br>--- ------ --- ------ --- --- -------- --- --- ----------<br>---- ----- --- --- ---- ----- -- -------- --- --- ---- ----<br>------- ------ --- ------ --- --- -----,73775.49500000896,73774.64499999769,73407.255,73407.78999996837,73423.862,73790.712,,5,around
screen,html.Screen,3_0_1_6,2021-03-07T04:19:56.134Z,,,7,,,,,,351.7579999624868,response,,,,3,,,,,,Space,keypress(Space),,,,,------- ------ ----- --- ------ ------ her --------- ---<br>---- -------- --------- --- ---------- --- -------- -------<br>--- -------- -- --- ---- ----- ---- ----- ------- --- -<br>--- ------ --- ------ --- --- -------- --- --- ----------<br>---- ----- --- --- ---- ----- -- -------- --- --- ---- ----<br>------- ------ --- ------ --- --- -----,74143.27499998035,74142.46999996249,73774.132,73775.72999999393,73790.712,74157.636,,6,her
screen,html.Screen,3_0_1_7,2021-03-07T04:19:56.463Z,,,7,,,,,,312.86899997567525,response,,,,3,,,,,,Space,keypress(Space),,,,,------- ------ ----- --- ------ ------ --- anxiously ---<br>---- -------- --------- --- ---------- --- -------- -------<br>--- -------- -- --- ---- ----- ---- ----- ------- --- -<br>--- ------ --- ------ --- --- -------- --- --- ----------<br>---- ----- --- --- ---- ----- -- -------- --- --- ---- ----<br>------- ------ --- ------ --- --- -----,74471.2849999778,74470.50499997567,74141.038,74143.51500000339,74157.636,74474.544,,7,anxiously
screen,html.Screen,3_0_1_8,2021-03-07T04:19:56.839Z,,,7,,,,,,371.915999971563,response,,,,3,,,,,,Space,keypress(Space),,,,,------- ------ ----- --- ------ ------ --- --------- for<br>---- -------- --------- --- ---------- --- -------- -------<br>--- -------- -- --- ---- ----- ---- ----- ------- --- -<br>--- ------ --- ------ --- --- -------- --- --- ----------<br>---- ----- --- --- ---- ----- -- -------- --- --- ---- ----<br>------- ------ --- ------ --- --- -----,74847.29000000516,74846.45999997156,74457.901,74471.51999996277,74474.544,74858.085,,8,for
screen,html.Screen,3_0_1_9,2021-03-07T04:19:57.198Z,,,7,,,,,,348.2849999707687,response,,,,3,,,,,,Space,keypress(Space),,,,,------- ------ ----- --- ------ ------ --- --------- ---<br>some -------- --------- --- ---------- --- -------- -------<br>--- -------- -- --- ---- ----- ---- ----- ------- --- -<br>--- ------ --- ------ --- --- -------- --- --- ----------<br>---- ----- --- --- ---- ----- -- -------- --- --- ---- ----<br>------- ------ --- ------ --- --- -----,75207.1499999729,75206.36999997078,74841.524,74847.52999997,74858.085,75230.616,,9,some
screen,html.Screen,3_0_1_10,2021-03-07T04:19:57.550Z,,,7,,,,,,327.7439999663475,response,,,,3,,,,,,Space,keypress(Space),,,,,------- ------ ----- --- ------ ------ --- --------- ---<br>---- familiar --------- --- ---------- --- -------- -------<br>--- -------- -- --- ---- ----- ---- ----- ------- --- -<br>--- ------ --- ------ --- --- -------- --- --- ----------<br>---- ----- --- --- ---- ----- -- -------- --- --- ---- ----<br>------- ------ --- ------ --- --- -----,75559.16000000434,75558.35999996634,75191.678,75207.38499995787,75230.616,75575.273,,10,familiar
screen,html.Screen,3_0_1_11,2021-03-07T04:19:57.910Z,,,7,,,,,,342.99699996555864,response,,,,3,,,,,,Space,keypress(Space),,,,,------- ------ ----- --- ------ ------ --- --------- ---<br>---- -------- landmark; --- ---------- --- -------- -------<br>--- -------- -- --- ---- ----- ---- ----- ------- --- -<br>--- ------ --- ------ --- --- -------- --- --- ----------<br>---- ----- --- --- ---- ----- -- -------- --- --- ---- ----<br>------- ------ --- ------ --- --- -----,75919.08500000136,75918.26999996556,75558.631,75559.39499998931,75575.273,75925.365,,11,landmark;
screen,html.Screen,3_0_1_12,2021-03-07T04:19:58.254Z,,,7,,,,,,336.8249999794498,response,,,,3,,,,,,Space,keypress(Space),,,,,------- ------ ----- --- ------ ------ --- --------- ---<br>---- -------- --------- but ---------- --- -------- -------<br>--- -------- -- --- ---- ----- ---- ----- ------- --- -<br>--- ------ --- ------ --- --- -------- --- --- ----------<br>---- ----- --- --- ---- ----- -- -------- --- --- ---- ----<br>------- ------ --- ------ --- --- -----,76262.98499997938,76262.18999997946,75908.855,75919.33000000427,75925.365,76275.666,,12,but
screen,html.Screen,3_0_1_13,2021-03-07T04:19:58.638Z,,,7,,,,,,370.57399997275206,response,,,,3,,,,,,Space,keypress(Space),,,,,------- ------ ----- --- ------ ------ --- --------- ---<br>---- -------- --------- --- everything --- -------- -------<br>--- -------- -- --- ---- ----- ---- ----- ------- --- -<br>--- ------ --- ------ --- --- -------- --- --- ----------<br>---- ----- --- --- ---- ----- -- -------- --- --- ---- ----<br>------- ------ --- ------ --- --- -----,76647.04000001075,76646.23999997275,76259.091,76263.21999996435,76275.666,76659.258,,13,everything
screen,html.Screen,3_0_1_14,2021-03-07T04:19:58.966Z,,,7,,,,,,314.8719999877794,response,,,,3,,,,,,Space,keypress(Space),,,,,------- ------ ----- --- ------ ------ --- --------- ---<br>---- -------- --------- --- ---------- was -------- -------<br>--- -------- -- --- ---- ----- ---- ----- ------- --- -<br>--- ------ --- ------ --- --- -------- --- --- ----------<br>---- ----- --- --- ---- ----- -- -------- --- --- ---- ----<br>------- ------ --- ------ --- --- -----,76974.93500000564,76974.12999998778,76642.672,76647.27999997558,76659.258,76992.868,,14,was
screen,html.Screen,3_0_1_15,2021-03-07T04:19:59.366Z,,,7,,,,,,381.1969999817811,response,,,,3,,,,,,Space,keypress(Space),,,,,------- ------ ----- --- ------ ------ --- --------- ---<br>---- -------- --------- --- ---------- --- strange. -------<br>--- -------- -- --- ---- ----- ---- ----- ------- --- -<br>--- ------ --- ------ --- --- -------- --- --- ----------<br>---- ----- --- --- ---- ----- -- -------- --- --- ---- ----<br>------- ------ --- ------ --- --- -----,77374.84999996377,77374.06499998178,76959.541,76975.18499998841,76992.868,77400.611,,15,strange.
screen,html.Screen,3_0_1_16,2021-03-07T04:19:59.718Z,,,7,,,,,,325.40900000187685,response,,,,3,,,,,,Space,keypress(Space),,,,,------- ------ ----- --- ------ ------ --- --------- ---<br>---- -------- --------- --- ---------- --- -------- Between<br>--- -------- -- --- ---- ----- ---- ----- ------- --- -<br>--- ------ --- ------ --- --- -------- --- --- ----------<br>---- ----- --- --- ---- ----- -- -------- --- --- ---- ----<br>------- ------ --- ------ --- --- -----,77726.80999996373,77726.02000000188,77359.831,77375.09499996668,77400.611,77743.366,,16,Between
screen,html.Screen,3_0_1_17,2021-03-07T04:20:00.118Z,,,7,,,,,,382.6789999827015,response,,,,3,,,,,,Space,keypress(Space),,,,,------- ------ ----- --- ------ ------ --- --------- ---<br>---- -------- --------- --- ---------- --- -------- -------<br>the -------- -- --- ---- ----- ---- ----- ------- --- -<br>--- ------ --- ------ --- --- -------- --- --- ----------<br>---- ----- --- --- ---- ----- -- -------- --- --- ---- ----<br>------- ------ --- ------ --- --- -----,78126.89499999397,78126.0449999827,77726.734,77727.04500000691,77743.366,78143.633,,17,the
screen,html.Screen,3_0_1_18,2021-03-07T04:20:00.494Z,,,7,,,,,,358.29199998956756,response,,,,3,,,,,,Space,keypress(Space),,,,,------- ------ ----- --- ------ ------ --- --------- ---<br>---- -------- --------- --- ---------- --- -------- -------<br>--- branches -- --- ---- ----- ---- ----- ------- --- -<br>--- ------ --- ------ --- --- -------- --- --- ----------<br>---- ----- --- --- ---- ----- -- -------- --- --- ---- ----<br>------- ------ --- ------ --- --- -----,78502.7649999829,78501.92499998957,78126.992,78127.14499997674,78143.633,78510.403,,18,branches
screen,html.Screen,3_0_1_19,2021-03-07T04:20:00.910Z,,,7,,,,,,407.49199996229436,response,,,,3,,,,,,Space,keypress(Space),,,,,------- ------ ----- --- ------ ------ --- --------- ---<br>---- -------- --------- --- ---------- --- -------- -------<br>--- -------- of --- ---- ----- ---- ----- ------- --- -<br>--- ------ --- ------ --- --- -------- --- --- ----------<br>---- ----- --- --- ---- ----- -- -------- --- --- ---- ----<br>------- ------ --- ------ --- --- -----,78918.75999997137,78917.8949999623,78493.871,78503.0099999858,78510.403,78927.432,,19,of
screen,html.Screen,3_0_1_20,2021-03-07T04:20:01.278Z,,,7,,,,,,358.322999960772,response,,,,3,,,,,,Space,keypress(Space),,,,,------- ------ ----- --- ------ ------ --- --------- ---<br>---- -------- --------- --- ---------- --- -------- -------<br>--- -------- -- the ---- ----- ---- ----- ------- --- -<br>--- ------ --- ------ --- --- -------- --- --- ----------<br>---- ----- --- --- ---- ----- -- -------- --- --- ---- ----<br>------- ------ --- ------ --- --- -----,79286.49500000756,79285.75499996077,78910.842,78918.99499995634,78927.432,79294.334,,20,the
screen,html.Screen,3_0_1_21,2021-03-07T04:20:01.686Z,,,7,,,,,,399.3959999990475,response,,,,3,,,,,,Space,keypress(Space),,,,,------- ------ ----- --- ------ ------ --- --------- ---<br>---- -------- --------- --- ---------- --- -------- -------<br>--- -------- -- --- many ----- ---- ----- ------- --- -<br>--- ------ --- ------ --- --- -------- --- --- ----------<br>---- ----- --- --- ---- ----- -- -------- --- --- ---- ----<br>------- ------ --- ------ --- --- -----,79694.51499998104,79693.72999999905,79277.736,79286.72999999253,79294.334,79711.313,,21,many
screen,html.Screen,3_0_1_22,2021-03-07T04:20:02.094Z,,,7,,,,,,390.30699997217744,response,,,,3,,,,,,Space,keypress(Space),,,,,------- ------ ----- --- ------ ------ --- --------- ---<br>---- -------- --------- --- ---------- --- -------- -------<br>--- -------- -- --- ---- roads ---- ----- ------- --- -<br>--- ------ --- ------ --- --- -------- --- --- ----------<br>---- ----- --- --- ---- ----- -- -------- --- --- ---- ----<br>------- ------ --- ------ --- --- -----,80102.38999995636,80101.61999997217,79694.691,79694.75500000408,79711.313,80111.487,,22,roads
screen,html.Screen,3_0_1_23,2021-03-07T04:20:02.486Z,,,7,,,,,,382.127999984863,response,,,,3,,,,,,Space,keypress(Space),,,,,------- ------ ----- --- ------ ------ --- --------- ---<br>---- -------- --------- --- ---------- --- -------- -------<br>--- -------- -- --- ---- ----- were ----- ------- --- -<br>--- ------ --- ------ --- --- -------- --- --- ----------<br>---- ----- --- --- ---- ----- -- -------- --- --- ---- ----<br>------- ------ --- ------ --- --- -----,80494.37500000931,80493.61499998486,80094.957,80102.6299999794,80111.487,80528.513,,23,were
screen,html.Screen,3_0_1_24,2021-03-07T04:20:02.902Z,,,7,,,,,,380.9819999707688,response,,,,3,,,,,,Space,keypress(Space),,,,,------- ------ ----- --- ------ ------ --- --------- ---<br>---- -------- --------- --- ---------- --- -------- -------<br>--- -------- -- --- ---- ----- ---- green ------- --- -<br>--- ------ --- ------ --- --- -------- --- --- ----------<br>---- ----- --- --- ---- ----- -- -------- --- --- ---- ----<br>------- ------ --- ------ --- --- -----,80910.44000000693,80909.49499997078,80511.835,80494.61499997415,80528.513,80930.275,,24,green
screen,html.Screen,3_0_1_25,2021-03-07T04:20:03.301Z,,,7,,,,,,379.16000000285567,response,,,,3,,,,,,Space,keypress(Space),,,,,------- ------ ----- --- ------ ------ --- --------- ---<br>---- -------- --------- --- ---------- --- -------- -------<br>--- -------- -- --- ---- ----- ---- ----- meadows --- -<br>--- ------ --- ------ --- --- -------- --- --- ----------<br>---- ----- --- --- ---- ----- -- -------- --- --- ---- ----<br>------- ------ --- ------ --- --- -----,81310.2399999625,81309.43500000285,80895.466,80910.75999999885,80930.275,81312.36,,25,meadows
screen,html.Screen,3_0_1_26,2021-03-07T04:20:03.749Z,,,7,,,,,,444.9199999616103,response,,,,3,,,,,,Space,keypress(Space),,,,,------- ------ ----- --- ------ ------ --- --------- ---<br>---- -------- --------- --- ---------- --- -------- -------<br>--- -------- -- --- ---- ----- ---- ----- ------- and -<br>--- ------ --- ------ --- --- -------- --- --- ----------<br>---- ----- --- --- ---- ----- -- -------- --- --- ---- ----<br>------- ------ --- ------ --- --- -----,81758.07999999961,81757.27999996161,81295.733,81310.47999998555,81312.36,81762.655,,26,and
screen,html.Screen,3_0_1_27,2021-03-07T04:20:04.310Z,,,7,,,,,,555.4049999614072,response,,,,3,,,,,,Space,keypress(Space),,,,,------- ------ ----- --- ------ ------ --- --------- ---<br>---- -------- --------- --- ---------- --- -------- -------<br>--- -------- -- --- ---- ----- ---- ----- ------- --- a<br>--- ------ --- ------ --- --- -------- --- --- ----------<br>---- ----- --- --- ---- ----- -- -------- --- --- ---- ----<br>------- ------ --- ------ --- --- -----,82318.8749999972,82318.0599999614,81746.057,81758.32500000251,81762.655,82329.635,,27,a
screen,html.Screen,3_0_1_28,2021-03-07T04:20:04.757Z,,,7,,,,,,435.579999963069,response,,,,3,,,,,,Space,keypress(Space),,,,,------- ------ ----- --- ------ ------ --- --------- ---<br>---- -------- --------- --- ---------- --- -------- -------<br>--- -------- -- --- ---- ----- ---- ----- ------- --- -<br>few ------ --- ------ --- --- -------- --- --- ----------<br>---- ----- --- --- ---- ----- -- -------- --- --- ---- ----<br>------- ------ --- ------ --- --- -----,82766.00000000326,82765.21499996306,82313.109,82319.11499996204,82329.635,82779.996,,28,few
screen,html.Screen,3_0_1_29,2021-03-07T04:20:05.197Z,,,7,,,,,,425.09899998297624,response,,,,3,,,,,,Space,keypress(Space),,,,,------- ------ ----- --- ------ ------ --- --------- ---<br>---- -------- --------- --- ---------- --- -------- -------<br>--- -------- -- --- ---- ----- ---- ----- ------- --- -<br>--- shrubs --- ------ --- --- -------- --- --- ----------<br>---- ----- --- --- ---- ----- -- -------- --- --- ---- ----<br>------- ------ --- ------ --- --- -----,83205.87999996496,83205.09499998298,82763.364,82766.2399999681,82779.996,83213.506,,29,shrubs
screen,html.Screen,3_0_1_30,2021-03-07T04:20:05.669Z,,,7,,,,,,463.6339999852353,response,,,,3,,,,,,Space,keypress(Space),,,,,------- ------ ----- --- ------ ------ --- --------- ---<br>---- -------- --------- --- ---------- --- -------- -------<br>--- -------- -- --- ---- ----- ---- ----- ------- --- -<br>--- ------ and ------ --- --- -------- --- --- ----------<br>---- ----- --- --- ---- ----- -- -------- --- --- ---- ----<br>------- ------ --- ------ --- --- -----,83678.0349999899,83677.13999998523,83196.982,83206.10999997007,83213.506,83680.541,,30,and
screen,html.Screen,3_0_1_31,2021-03-07T04:20:06.076Z,,,7,,,,,,404.4439999649476,response,,,,3,,,,,,Space,keypress(Space),,,,,"------- ------ ----- --- ------ ------ --- --------- ---<br>---- -------- --------- --- ---------- --- -------- -------<br>--- -------- -- --- ---- ----- ---- ----- ------- --- -<br>--- ------ --- trees, --- --- -------- --- --- ----------<br>---- ----- --- --- ---- ----- -- -------- --- --- ---- ----<br>------- ------ --- ------ --- --- -----",84085.774999985,84084.98499996495,83663.954,83678.29000001075,83680.541,84097.491,,31,"trees,"
screen,html.Screen,3_0_1_32,2021-03-07T04:20:06.540Z,,,7,,,,,,451.43899998992856,response,,,,3,,,,,,Space,keypress(Space),,,,,------- ------ ----- --- ------ ------ --- --------- ---<br>---- -------- --------- --- ---------- --- -------- -------<br>--- -------- -- --- ---- ----- ---- ----- ------- --- -<br>--- ------ --- ------ but --- -------- --- --- ----------<br>---- ----- --- --- ---- ----- -- -------- --- --- ---- ----<br>------- ------ --- ------ --- --- -----,84549.71499997191,84548.92999998992,84080.905,84086.01999998791,84097.491,84564.503,,32,but
screen,html.Screen,3_0_1_33,2021-03-07T04:20:06.980Z,,,7,,,,,,424.4069999563799,response,,,,3,,,,,,Space,keypress(Space),,,,,------- ------ ----- --- ------ ------ --- --------- ---<br>---- -------- --------- --- ---------- --- -------- -------<br>--- -------- -- --- ---- ----- ---- ----- ------- --- -<br>--- ------ --- ------ --- she -------- --- --- ----------<br>---- ----- --- --- ---- ----- -- -------- --- --- ---- ----<br>------- ------ --- ------ --- --- -----,84989.78000000352,84988.90999995638,84547.867,84549.95499999495,84564.503,84998.054,,33,she
screen,html.Screen,3_0_1_34,2021-03-07T04:20:07.420Z,,,7,,,,,,430.7459999942221,response,,,,3,,,,,,Space,keypress(Space),,,,,------- ------ ----- --- ------ ------ --- --------- ---<br>---- -------- --------- --- ---------- --- -------- -------<br>--- -------- -- --- ---- ----- ---- ----- ------- --- -<br>--- ------ --- ------ --- --- couldn't --- --- ----------<br>---- ----- --- --- ---- ----- -- -------- --- --- ---- ----<br>------- ------ --- ------ --- --- -----,85429.64499996742,85428.79999999423,84981.479,84990.01999996835,84998.054,85431.73,,34,couldn't
screen,html.Screen,3_0_1_35,2021-03-07T04:20:07.836Z,,,7,,,,,,413.0049999914918,response,,,,3,,,,,,Space,keypress(Space),,,,,------- ------ ----- --- ------ ------ --- --------- ---<br>---- -------- --------- --- ---------- --- -------- -------<br>--- -------- -- --- ---- ----- ---- ----- ------- --- -<br>--- ------ --- ------ --- --- -------- see --- ----------<br>---- ----- --- --- ---- ----- -- -------- --- --- ---- ----<br>------- ------ --- ------ --- --- -----,85845.56499996688,85844.73499999149,85415.099,85429.88499999046,85431.73,85848.668,,35,see
screen,html.Screen,3_0_1_36,2021-03-07T04:20:08.292Z,,,7,,,,,,452.0220000036643,response,,,,3,,,,,,Space,keypress(Space),,,,,------- ------ ----- --- ------ ------ --- --------- ---<br>---- -------- --------- --- ---------- --- -------- -------<br>--- -------- -- --- ---- ----- ---- ----- ------- --- -<br>--- ------ --- ------ --- --- -------- --- the ----------<br>---- ----- --- --- ---- ----- -- -------- --- --- ---- ----<br>------- ------ --- ------ --- --- -----,86301.44499999005,86300.69000000367,85832.051,85845.80999996979,85848.668,86315.65,,36,the
screen,html.Screen,3_0_1_37,2021-03-07T04:20:08.716Z,,,7,,,,,,408.9849999914004,response,,,,3,,,,,,Space,keypress(Space),,,,,------- ------ ----- --- ------ ------ --- --------- ---<br>---- -------- --------- --- ---------- --- -------- -------<br>--- -------- -- --- ---- ----- ---- ----- ------- --- -<br>--- ------ --- ------ --- --- -------- --- --- farm-house<br>---- ----- --- --- ---- ----- -- -------- --- --- ---- ----<br>------- ------ --- ------ --- --- -----,86725.44499998912,86724.6349999914,86299.032,86301.67999997502,86315.65,86732.47,,37,farm-house
screen,html.Screen,3_0_1_38,2021-03-07T04:20:09.188Z,,,7,,,,,,464.0349999998871,response,,,,3,,,,,,Space,keypress(Space),,,,,------- ------ ----- --- ------ ------ --- --------- ---<br>---- -------- --------- --- ---------- --- -------- -------<br>--- -------- -- --- ---- ----- ---- ----- ------- --- -<br>--- ------ --- ------ --- --- -------- --- --- ----------<br>from ----- --- --- ---- ----- -- -------- --- --- ---- ----<br>------- ------ --- ------ --- --- -----,87197.29499996174,87196.50499999989,86715.952,86725.68999999203,86732.47,87199.548,,38,from
screen,html.Screen,3_0_1_39,2021-03-07T04:20:09.604Z,,,7,,,,,,412.9269999726239,response,,,,3,,,,,,Space,keypress(Space),,,,,------- ------ ----- --- ------ ------ --- --------- ---<br>---- -------- --------- --- ---------- --- -------- -------<br>--- -------- -- --- ---- ----- ---- ----- ------- --- -<br>--- ------ --- ------ --- --- -------- --- --- ----------<br>---- which --- --- ---- ----- -- -------- --- --- ---- ----<br>------- ------ --- ------ --- --- -----,87613.30999998609,87612.47499997262,87182.952,87197.54500000272,87199.548,87616.501,,39,which
screen,html.Screen,3_0_1_40,2021-03-07T04:20:10.044Z,,,7,,,,,,435.97900001301605,response,,,,3,,,,,,Space,keypress(Space),,,,,------- ------ ----- --- ------ ------ --- --------- ---<br>---- -------- --------- --- ---------- --- -------- -------<br>--- -------- -- --- ---- ----- ---- ----- ------- --- -<br>--- ------ --- ------ --- --- -------- --- --- ----------<br>---- ----- she --- ---- ----- -- -------- --- --- ---- ----<br>------- ------ --- ------ --- --- -----,88053.35000000196,88052.48000001302,87599.878,87613.55499998899,87616.501,88066.796,,40,she
screen,html.Screen,3_0_1_41,2021-03-07T04:20:10.492Z,,,7,,,,,,433.9989999999234,response,,,,3,,,,,,Space,keypress(Space),,,,,------- ------ ----- --- ------ ------ --- --------- ---<br>---- -------- --------- --- ---------- --- -------- -------<br>--- -------- -- --- ---- ----- ---- ----- ------- --- -<br>--- ------ --- ------ --- --- -------- --- --- ----------<br>---- ----- --- had ---- ----- -- -------- --- --- ---- ----<br>------- ------ --- ------ --- --- -----,88501.57999998191,88500.79499999993,88050.175,88053.60499996459,88066.796,88517.091,,41,had
screen,html.Screen,3_0_1_42,2021-03-07T04:20:10.916Z,,,7,,,,,,407.1439999840368,response,,,,3,,,,,,Space,keypress(Space),,,,,------- ------ ----- --- ------ ------ --- --------- ---<br>---- -------- --------- --- ---------- --- -------- -------<br>--- -------- -- --- ---- ----- ---- ----- ------- --- -<br>--- ------ --- ------ --- --- -------- --- --- ----------<br>---- ----- --- --- just ----- -- -------- --- --- ---- ----<br>------- ------ --- ------ --- --- -----,88925.0400000019,88924.23499998404,88500.454,88501.82000000495,88517.091,88933.957,,42,just
screen,html.Screen,3_0_1_43,2021-03-07T04:20:11.404Z,,,7,,,,,,478.1779999913997,response,,,,3,,,,,,Space,keypress(Space),,,,,"------- ------ ----- --- ------ ------ --- --------- ---<br>---- -------- --------- --- ---------- --- -------- -------<br>--- -------- -- --- ---- ----- ---- ----- ------- --- -<br>--- ------ --- ------ --- --- -------- --- --- ----------<br>---- ----- --- --- ---- come, -- -------- --- --- ---- ----<br>------- ------ --- ------ --- --- -----",89412.93499997118,89412.1349999914,88917.392,88925.270000007,88933.957,89417.677,,43,"come,"
screen,html.Screen,3_0_1_44,2021-03-07T04:20:11.876Z,,,7,,,,,,466.4229999665695,response,,,,3,,,,,,Space,keypress(Space),,,,,------- ------ ----- --- ------ ------ --- --------- ---<br>---- -------- --------- --- ---------- --- -------- -------<br>--- -------- -- --- ---- ----- ---- ----- ------- --- -<br>--- ------ --- ------ --- --- -------- --- --- ----------<br>---- ----- --- --- ---- ----- or -------- --- --- ---- ----<br>------- ------ --- ------ --- --- -----,89884.91500000237,89884.09999996657,89401.01,89413.16999995615,89417.677,89901.325,,44,or
screen,html.Screen,3_0_1_45,2021-03-07T04:20:12.387Z,,,7,,,,,,494.69000000572123,response,,,,3,,,,,,Space,keypress(Space),,,,,------- ------ ----- --- ------ ------ --- --------- ---<br>---- -------- --------- --- ---------- --- -------- -------<br>--- -------- -- --- ---- ----- ---- ----- ------- --- -<br>--- ------ --- ------ --- --- -------- --- --- ----------<br>---- ----- --- --- ---- ----- -- anything --- --- ---- ----<br>------- ------ --- ------ --- --- -----,90396.81499998551,90396.01500000572,89884.712,89885.14500000747,89901.325,90401.65,,45,anything
screen,html.Screen,3_0_1_46,2021-03-07T04:20:12.835Z,,,7,,,,,,442.27499999376596,response,,,,3,,,,,,Space,keypress(Space),,,,,------- ------ ----- --- ------ ------ --- --------- ---<br>---- -------- --------- --- ---------- --- -------- -------<br>--- -------- -- --- ---- ----- ---- ----- ------- --- -<br>--- ------ --- ------ --- --- -------- --- --- ----------<br>---- ----- --- --- ---- ----- -- -------- she --- ---- ----<br>------- ------ --- ------ --- --- -----,90844.8099999805,90843.92499999376,90385.004,90397.06499996828,90401.65,90851.834,,46,she
screen,html.Screen,3_0_1_47,2021-03-07T04:20:13.299Z,,,7,,,,,,456.035999960528,response,,,,3,,,,,,Space,keypress(Space),,,,,------- ------ ----- --- ------ ------ --- --------- ---<br>---- -------- --------- --- ---------- --- -------- -------<br>--- -------- -- --- ---- ----- ---- ----- ------- --- -<br>--- ------ --- ------ --- --- -------- --- --- ----------<br>---- ----- --- --- ---- ----- -- -------- --- had ---- ----<br>------- ------ --- ------ --- --- -----,91308.6749999784,91307.86999996053,90835.324,90845.07499996107,90851.834,91318.862,,47,had
screen,html.Screen,3_0_1_48,2021-03-07T04:20:13.763Z,,,7,,,,,,453.04800001039985,response,,,,3,,,,,,Space,keypress(Space),,,,,------- ------ ----- --- ------ ------ --- --------- ---<br>---- -------- --------- --- ---------- --- -------- -------<br>--- -------- -- --- ---- ----- ---- ----- ------- --- -<br>--- ------ --- ------ --- --- -------- --- --- ----------<br>---- ----- --- --- ---- ----- -- -------- --- --- ever ----<br>------- ------ --- ------ --- --- -----,91772.73500000592,91771.9100000104,91302.292,91308.91500000143,91318.862,91785.862,,48,ever
screen,html.Screen,3_0_1_49,2021-03-07T04:20:14.291Z,,,7,,,,,,513.8679999697197,response,,,,3,,,,,,Space,keypress(Space),,,,,------- ------ ----- --- ------ ------ --- --------- ---<br>---- -------- --------- --- ---------- --- -------- -------<br>--- -------- -- --- ---- ----- ---- ----- ------- --- -<br>--- ------ --- ------ --- --- -------- --- --- ----------<br>---- ----- --- --- ---- ----- -- -------- --- --- ---- seen<br>------- ------ --- ------ --- --- -----,92300.49499997403,92299.72999996971,91769.269,91772.98000000883,91785.862,92302.894,,49,seen
screen,html.Screen,3_0_1_50,2021-03-07T04:20:14.764Z,,,7,,,,,,469.7009999876318,response,,,,3,,,,,,Space,keypress(Space),,,,,"------- ------ ----- --- ------ ------ --- --------- ---<br>---- -------- --------- --- ---------- --- -------- -------<br>--- -------- -- --- ---- ----- ---- ----- ------- --- -<br>--- ------ --- ------ --- --- -------- --- --- ----------<br>---- ----- --- --- ---- ----- -- -------- --- --- ---- ----<br>before, ------ --- ------ --- --- -----",92773.4449999989,92772.59499998763,92286.283,92300.73499999708,92302.894,92786.504,,50,"before,"
screen,html.Screen,3_0_1_51,2021-03-07T04:20:15.267Z,,,7,,,,,,489.1409999869793,response,,,,3,,,,,,Space,keypress(Space),,,,,------- ------ ----- --- ------ ------ --- --------- ---<br>---- -------- --------- --- ---------- --- -------- -------<br>--- -------- -- --- ---- ----- ---- ----- ------- --- -<br>--- ------ --- ------ --- --- -------- --- --- ----------<br>---- ----- --- --- ---- ----- -- -------- --- --- ---- ----<br>------- except --- ------ --- --- -----,93276.38499997556,93275.64499998698,92769.94,92773.6900000018,92786.504,93286.826,,51,except
screen,html.Screen,3_0_1_52,2021-03-07T04:20:15.691Z,,,7,,,,,,412.5489999674028,response,,,,3,,,,,,Space,keypress(Space),,,,,------- ------ ----- --- ------ ------ --- --------- ---<br>---- -------- --------- --- ---------- --- -------- -------<br>--- -------- -- --- ---- ----- ---- ----- ------- --- -<br>--- ------ --- ------ --- --- -------- --- --- ----------<br>---- ----- --- --- ---- ----- -- -------- --- --- ---- ----<br>------- ------ the ------ --- --- -----,93700.16999996733,93699.3749999674,93270.266,93276.61999996053,93286.826,93703.818,,52,the
screen,html.Screen,3_0_1_53,2021-03-07T04:20:16.147Z,,,7,,,,,,451.62699998213793,response,,,,3,,,,,,Space,keypress(Space),,,,,------- ------ ----- --- ------ ------ --- --------- ---<br>---- -------- --------- --- ---------- --- -------- -------<br>--- -------- -- --- ---- ----- ---- ----- ------- --- -<br>--- ------ --- ------ --- --- -------- --- --- ----------<br>---- ----- --- --- ---- ----- -- -------- --- --- ---- ----<br>------- ------ --- shaggy --- --- -----,94156.2200000044,94155.44499998214,93687.183,93700.40999999037,93703.818,94170.798,,53,shaggy
screen,html.Screen,3_0_1_54,2021-03-07T04:20:16.565Z,,,7,,,,,,400.6320000108826,response,,,,3,,,,,,Space,keypress(Space),,,,,------- ------ ----- --- ------ ------ --- --------- ---<br>---- -------- --------- --- ---------- --- -------- -------<br>--- -------- -- --- ---- ----- ---- ----- ------- --- -<br>--- ------ --- ------ --- --- -------- --- --- ----------<br>---- ----- --- --- ---- ----- -- -------- --- --- ---- ----<br>------- ------ --- ------ man --- -----,94574.28999996046,94571.43000001088,94154.18,94156.4650000073,94170.798,94587.736,,54,man
screen,html.Screen,3_0_1_55,2021-03-07T04:20:16.971Z,,,7,,,,,,391.63899999533896,response,,,,3,,,,,,Space,keypress(Space),,,,,------- ------ ----- --- ------ ------ --- --------- ---<br>---- -------- --------- --- ---------- --- -------- -------<br>--- -------- -- --- ---- ----- ---- ----- ------- --- -<br>--- ------ --- ------ --- --- -------- --- --- ----------<br>---- ----- --- --- ---- ----- -- -------- --- --- ---- ----<br>------- ------ --- ------ --- and -----,94980.21499998868,94979.37499999534,94571.097,94574.54999996116,94587.736,94987.876,,55,and
screen,html.Screen,3_0_1_56,2021-03-07T04:20:17.459Z,,,7,,,,,,479.3390000114887,response,,,,3,,,,,,Space,keypress(Space),,,,,------- ------ ----- --- ------ ------ --- --------- ---<br>---- -------- --------- --- ---------- --- -------- -------<br>--- -------- -- --- ---- ----- ---- ----- ------- --- -<br>--- ------ --- ------ --- --- -------- --- --- ----------<br>---- ----- --- --- ---- ----- -- -------- --- --- ---- ----<br>------- ------ --- ------ --- --- Toto.,95468.1049999781,95467.21500001149,94971.356,94980.45999999158,94987.876,95471.637,,56,Toto.
Item 3,flow.Loop,3_0_1,2021-03-07T04:20:17.459Z,,,,,,,,,35485.66600001149,completion,,,,,,,,,,,,,,,,,95468.57500000624,95467.21500001149,59964.997,59967.03499997966,59981.549,95471.637,,,
Question 1,html.Screen,3_0_2,2021-03-07T04:20:21.247Z,,,,,,false,TRUE,,3783.8579999903304,response,,,,,,,,,,FALSE,click #choice-2,,,,,,99256.21500000125,99255.49499999033,95455.036,95468.76999997767,95471.637,99257.385,,,
Question 2,html.Screen,3_0_3,2021-03-07T04:20:21.975Z,,,,,,false,FALSE,,726.0050000085175,response,,,,,,,,,,TRUE,click #choice-1,,,,,,99984.13999995682,99983.39000000851,99240.789,99256.3599999994,99257.385,99991.256,,,
Item 3,flow.Sequence,3_0,2021-03-07T04:20:21.975Z,,,,,,,,,47006.28500000851,completion,,,,,,,,,,,,,,,,,99984.3450000044,99983.39000000851,52960.434,52953.06999998866,52977.105,99991.256,,,
Holding screen,html.Screen,3_1_0,2021-03-07T04:20:28.971Z,,,,,,,,,7004.437000000005,timeout,,,,,,,,,,,,,,,,,106979.92499999236,106979.171,99974.586,99984.46999996668,99991.256,106995.693,,,
screen,html.Screen,3_1_1_0,2021-03-07T04:20:29.626Z,,,3,,,,,,638.6319999918051,response,,,,2,,,,,,Space,keypress(Space),,,,,I ----- ---- ------------ ------ ------- --- ------ ----<br>--- ---- -- - --------- -------- --- --------- --- ----<br>----- --------- --- ----- ----- --------- --- ---- --- ----<br>----- ---- --- --- --- ---- -- -------- ---- - --------- --<br>----- -- ----------- ----- ---- ---- ---- ----- -------- --<br>---------- ---- ----- ----- ---- ------- -----------,107635.22999995621,107634.3249999918,106979.171,106980.24999996414,106995.693,107646.239,,0,I
screen,html.Screen,3_1_1_1,2021-03-07T04:20:30.097Z,,,3,,,,,,459.1059999890276,response,,,,2,,,,,,Space,keypress(Space),,,,,- agree ---- ------------ ------ ------- --- ------ ----<br>--- ---- -- - --------- -------- --- --------- --- ----<br>----- --------- --- ----- ----- --------- --- ---- --- ----<br>----- ---- --- --- --- ---- -- -------- ---- - --------- --<br>----- -- ----------- ----- ---- ---- ---- ----- -------- --<br>---------- ---- ----- ----- ---- ------- -----------,108106.1800000025,108105.34499998903,107629.686,107635.48499997705,107646.239,108113.104,,1,agree
screen,html.Screen,3_1_1_2,2021-03-07T04:20:30.729Z,,,3,,,,,,624.0959999741026,response,,,,2,,,,,,Space,keypress(Space),,,,,- ----- that ------------ ------ ------- --- ------ ----<br>--- ---- -- - --------- -------- --- --------- --- ----<br>----- --------- --- ----- ----- --------- --- ---- --- ----<br>----- ---- --- --- --- ---- -- -------- ---- - --------- --<br>----- -- ----------- ----- ---- ---- ---- ----- -------- --<br>---------- ---- ----- ----- ---- ------- -----------,108737.9849999561,108737.19999997411,108096.577,108106.4100000076,108113.104,108746.883,,2,that
screen,html.Screen,3_1_1_3,2021-03-07T04:20:31.240Z,,,3,,,,,,502.1770000019169,response,,,,2,,,,,,Space,keypress(Space),,,,,- ----- ---- California's ------ ------- --- ------ ----<br>--- ---- -- - --------- -------- --- --------- --- ----<br>----- --------- --- ----- ----- --------- --- ---- --- ----<br>----- ---- --- --- --- ---- -- -------- ---- - --------- --<br>----- -- ----------- ----- ---- ---- ---- ----- -------- --<br>---------- ---- ----- ----- ---- ------- -----------,109249.8149999883,109249.06000000192,108730.404,108738.2149999612,108746.883,109263.963,,3,California's
screen,html.Screen,3_1_1_4,2021-03-07T04:20:31.968Z,,,3,,,,,,713.0169999776263,response,,,,2,,,,,,Space,keypress(Space),,,,,"- ----- ---- ------------ ""three ------- --- ------ ----<br>--- ---- -- - --------- -------- --- --------- --- ----<br>----- --------- --- ----- ----- --------- --- ---- --- ----<br>----- ---- --- --- --- ---- -- -------- ---- - --------- --<br>----- -- ----------- ----- ---- ---- ---- ----- -------- --<br>---------- ---- ----- ----- ---- ------- -----------",109977.82500000903,109976.97999997763,109247.393,109250.04000001354,109263.963,109981.155,,4,"""three"
screen,html.Screen,3_1_1_5,2021-03-07T04:20:32.592Z,,,3,,,,,,619.5949999832374,response,,,,2,,,,,,Space,keypress(Space),,,,,- ----- ---- ------------ ------ strikes --- ------ ----<br>--- ---- -- - --------- -------- --- --------- --- ----<br>----- --------- --- ----- ----- --------- --- ---- --- ----<br>----- ---- --- --- --- ---- -- -------- ---- - --------- --<br>----- -- ----------- ----- ---- ---- ---- ----- -------- --<br>---------- ---- ----- ----- ---- ------- -----------,110601.53499996522,110600.74999998324,109964.552,109978.06499997387,109981.155,110614.833,,5,strikes
screen,html.Screen,3_1_1_6,2021-03-07T04:20:33.056Z,,,3,,,,,,450.0220000041736,response,,,,2,,,,,,Space,keypress(Space),,,,,- ----- ---- ------------ ------ ------- and ------ ----<br>--- ---- -- - --------- -------- --- --------- --- ----<br>----- --------- --- ----- ----- --------- --- ---- --- ----<br>----- ---- --- --- --- ---- -- -------- ---- - --------- --<br>----- -- ----------- ----- ---- ---- ---- ----- -------- --<br>---------- ---- ----- ----- ---- ------- -----------,111065.6500000041,111064.85500000417,110598.337,110601.76499997033,110614.833,111081.863,,6,and
screen,html.Screen,3_1_1_7,2021-03-07T04:20:33.728Z,,,3,,,,,,654.7269999858836,response,,,,2,,,,,,Space,keypress(Space),,,,,- ----- ---- ------------ ------ ------- --- you're ----<br>--- ---- -- - --------- -------- --- --------- --- ----<br>----- --------- --- ----- ----- --------- --- ---- --- ----<br>----- ---- --- --- --- ---- -- -------- ---- - --------- --<br>----- -- ----------- ----- ---- ---- ---- ----- -------- --<br>---------- ---- ----- ----- ---- ------- -----------,111737.3549999902,111736.58999998588,111065.237,111065.8650000114,111081.863,111748.905,,7,you're
screen,html.Screen,3_1_1_8,2021-03-07T04:20:34.392Z,,,3,,,,,,651.6649999979709,response,,,,2,,,,,,Space,keypress(Space),,,,,"- ----- ---- ------------ ------ ------- --- ------ out""<br>--- ---- -- - --------- -------- --- --------- --- ----<br>----- --------- --- ----- ----- --------- --- ---- --- ----<br>----- ---- --- --- --- ---- -- -------- ---- - --------- --<br>----- -- ----------- ----- ---- ---- ---- ----- -------- --<br>---------- ---- ----- ----- ---- ------- -----------",112401.33500000229,112400.56999999797,111732.366,111737.55999997957,111748.905,112416.097,,8,"out"""
screen,html.Screen,3_1_1_9,2021-03-07T04:20:34.880Z,,,3,,,,,,472.4179999987391,response,,,,2,,,,,,Space,keypress(Space),,,,,- ----- ---- ------------ ------ ------- --- ------ ----<br>law ---- -- - --------- -------- --- --------- --- ----<br>----- --------- --- ----- ----- --------- --- ---- --- ----<br>----- ---- --- --- --- ---- -- -------- ---- - --------- --<br>----- -- ----------- ----- ---- ---- ---- ----- -------- --<br>---------- ---- ----- ----- ---- ------- -----------,112889.35999997193,112888.51499999873,112399.436,112401.55000000959,112416.097,112899.598,,9,law
screen,html.Screen,3_1_1_10,2021-03-07T04:20:35.408Z,,,3,,,,,,516.8069999672007,response,,,,2,,,,,,Space,keypress(Space),,,,,- ----- ---- ------------ ------ ------- --- ------ ----<br>--- will -- - --------- -------- --- --------- --- ----<br>----- --------- --- ----- ----- --------- --- ---- --- ----<br>----- ---- --- --- --- ---- -- -------- ---- - --------- --<br>----- -- ----------- ----- ---- ---- ---- ----- -------- --<br>---------- ---- ----- ----- ---- ------- -----------,113417.13499999605,113416.4049999672,112883.092,112889.58999997703,112899.598,113433.416,,10,will
screen,html.Screen,3_1_1_11,2021-03-07T04:20:36.008Z,,,3,,,,,,582.9239999728452,response,,,,2,,,,,,Space,keypress(Space),,,,,- ----- ---- ------------ ------ ------- --- ------ ----<br>--- ---- be - --------- -------- --- --------- --- ----<br>----- --------- --- ----- ----- --------- --- ---- --- ----<br>----- ---- --- --- --- ---- -- -------- ---- - --------- --<br>----- -- ----------- ----- ---- ---- ---- ----- -------- --<br>---------- ---- ----- ----- ---- ------- -----------,114017.15999998851,114016.33999997284,113416.794,113417.35999996308,113433.416,114033.812,,11,be
screen,html.Screen,3_1_1_12,2021-03-07T04:20:36.512Z,,,3,,,,,,486.4729999768606,response,,,,2,,,,,,Space,keypress(Space),,,,,- ----- ---- ------------ ------ ------- --- ------ ----<br>--- ---- -- a --------- -------- --- --------- --- ----<br>----- --------- --- ----- ----- --------- --- ---- --- ----<br>----- ---- --- --- --- ---- -- -------- ---- - --------- --<br>----- -- ----------- ----- ---- ---- ---- ----- -------- --<br>---------- ---- ----- ----- ---- ------- -----------,114521.02499996545,114520.28499997687,114017.195,114017.37999997567,114033.812,114534.111,,12,a
screen,html.Screen,3_1_1_13,2021-03-07T04:20:37.096Z,,,3,,,,,,570.0639999858395,response,,,,2,,,,,,Space,keypress(Space),,,,,- ----- ---- ------------ ------ ------- --- ------ ----<br>--- ---- -- - financial -------- --- --------- --- ----<br>----- --------- --- ----- ----- --------- --- ---- --- ----<br>----- ---- --- --- --- ---- -- -------- ---- - --------- --<br>----- -- ----------- ----- ---- ---- ---- ----- -------- --<br>---------- ---- ----- ----- ---- ------- -----------,115104.98999996344,115104.17499998584,114517.51,114521.24999999069,114534.111,115117.852,,13,financial
screen,html.Screen,3_1_1_14,2021-03-07T04:20:37.639Z,,,3,,,,,,530.2280000135797,response,,,,2,,,,,,Space,keypress(Space),,,,,- ----- ---- ------------ ------ ------- --- ------ ----<br>--- ---- -- - --------- disaster --- --------- --- ----<br>----- --------- --- ----- ----- --------- --- ---- --- ----<br>----- ---- --- --- --- ---- -- -------- ---- - --------- --<br>----- -- ----------- ----- ---- ---- ---- ----- -------- --<br>---------- ---- ----- ----- ---- ------- -----------,115648.80999998422,115648.08000001358,115101.235,115105.21499998868,115117.852,115651.524,,14,disaster
screen,html.Screen,3_1_1_15,2021-03-07T04:20:38.415Z,,,3,,,,,,772.4709999609913,response,,,,2,,,,,,Space,keypress(Space),,,,,- ----- ---- ------------ ------ ------- --- ------ ----<br>--- ---- -- - --------- -------- for --------- --- ----<br>----- --------- --- ----- ----- --------- --- ---- --- ----<br>----- ---- --- --- --- ---- -- -------- ---- - --------- --<br>----- -- ----------- ----- ---- ---- ---- ----- -------- --<br>---------- ---- ----- ----- ---- ------- -----------,116424.794999999,116423.994999961,115634.908,115649.02999997139,115651.524,116435.272,,15,for
screen,html.Screen,3_1_1_16,2021-03-07T04:20:39.103Z,,,3,,,,,,676.5829999664566,response,,,,2,,,,,,Space,keypress(Space),,,,,- ----- ---- ------------ ------ ------- --- ------ ----<br>--- ---- -- - --------- -------- --- taxpayers --- ----<br>----- --------- --- ----- ----- --------- --- ---- --- ----<br>----- ---- --- --- --- ---- -- -------- ---- - --------- --<br>----- -- ----------- ----- ---- ---- ---- ----- -------- --<br>---------- ---- ----- ----- ---- ------- -----------,117112.68999997992,117111.85499996645,116418.808,116425.01999996603,116435.272,117119.068,,16,taxpayers
screen,html.Screen,3_1_1_17,2021-03-07T04:20:39.680Z,,,3,,,,,,569.3970000138215,response,,,,2,,,,,,Space,keypress(Space),,,,,- ----- ---- ------------ ------ ------- --- ------ ----<br>--- ---- -- - --------- -------- --- --------- who ----<br>----- --------- --- ----- ----- --------- --- ---- --- ----<br>----- ---- --- --- --- ---- -- -------- ---- - --------- --<br>----- -- ----------- ----- ---- ---- ---- ----- -------- --<br>---------- ---- ----- ----- ---- ------- -----------,117689.24499995774,117688.46500001382,117102.562,117112.91500000516,117119.068,117702.832,,17,who
screen,html.Screen,3_1_1_18,2021-03-07T04:20:40.207Z,,,3,,,,,,512.6979999867617,response,,,,2,,,,,,Space,keypress(Space),,,,,- ----- ---- ------------ ------ ------- --- ------ ----<br>--- ---- -- - --------- -------- --- --------- --- care<br>----- --------- --- ----- ----- --------- --- ---- --- ----<br>----- ---- --- --- --- ---- -- -------- ---- - --------- --<br>----- -- ----------- ----- ---- ---- ---- ----- -------- --<br>---------- ---- ----- ----- ---- ------- -----------,118216.28499997314,118215.52999998676,117686.276,117689.46500000311,117702.832,118219.873,,18,care
screen,html.Screen,3_1_1_19,2021-03-07T04:20:40.711Z,,,3,,,,,,499.6469999841793,response,,,,2,,,,,,Space,keypress(Space),,,,,- ----- ---- ------------ ------ ------- --- ------ ----<br>--- ---- -- - --------- -------- --- --------- --- ----<br>about --------- --- ----- ----- --------- --- ---- --- ----<br>----- ---- --- --- --- ---- -- -------- ---- - --------- --<br>----- -- ----------- ----- ---- ---- ---- ----- -------- --<br>---------- ---- ----- ----- ---- ------- -----------,118720.28999996837,118719.51999998419,118203.251,118216.49500000058,118219.873,118736.814,,19,about
screen,html.Screen,3_1_1_20,2021-03-07T04:20:41.239Z,,,3,,,,,,510.690999977538,response,,,,2,,,,,,Space,keypress(Space),,,,,- ----- ---- ------------ ------ ------- --- ------ ----<br>--- ---- -- - --------- -------- --- --------- --- ----<br>----- education --- ----- ----- --------- --- ---- --- ----<br>----- ---- --- --- --- ---- -- -------- ---- - --------- --<br>----- -- ----------- ----- ---- ---- ---- ----- -------- --<br>---------- ---- ----- ----- ---- ------- -----------,119248.28499997966,119247.50499997754,118720.264,118720.50499997567,118736.814,119253.789,,20,education
screen,html.Screen,3_1_1_21,2021-03-07T04:20:41.799Z,,,3,,,,,,553.730999973006,response,,,,2,,,,,,Space,keypress(Space),,,,,- ----- ---- ------------ ------ ------- --- ------ ----<br>--- ---- -- - --------- -------- --- --------- --- ----<br>----- --------- and ----- ----- --------- --- ---- --- ----<br>----- ---- --- --- --- ---- -- -------- ---- - --------- --<br>----- -- ----------- ----- ---- ---- ---- ----- -------- --<br>---------- ---- ----- ----- ---- ------- -----------,119808.36999998428,119807.51999997301,119237.269,119248.50499996683,119253.789,119820.891,,21,and
screen,html.Screen,3_1_1_22,2021-03-07T04:20:42.311Z,,,3,,,,,,498.47899998287903,response,,,,2,,,,,,Space,keypress(Space),,,,,- ----- ---- ------------ ------ ------- --- ------ ----<br>--- ---- -- - --------- -------- --- --------- --- ----<br>----- --------- --- other ----- --------- --- ---- --- ----<br>----- ---- --- --- --- ---- -- -------- ---- - --------- --<br>----- -- ----------- ----- ---- ---- ---- ----- -------- --<br>---------- ---- ----- ----- ---- ------- -----------,120320.19499997841,120319.36999998288,119804.278,119808.58499999158,119820.891,120337.925,,22,other
screen,html.Screen,3_1_1_23,2021-03-07T04:20:42.903Z,,,3,,,,,,573.3599999801227,response,,,,2,,,,,,Space,keypress(Space),,,,,- ----- ---- ------------ ------ ------- --- ------ ----<br>--- ---- -- - --------- -------- --- --------- --- ----<br>----- --------- --- ----- vital --------- --- ---- --- ----<br>----- ---- --- --- --- ---- -- -------- ---- - --------- --<br>----- -- ----------- ----- ---- ---- ---- ----- -------- --<br>---------- ---- ----- ----- ---- ------- -----------,120912.06499998225,120911.28499998013,120304.603,120320.40999998571,120337.925,120921.615,,23,vital
screen,html.Screen,3_1_1_24,2021-03-07T04:20:43.439Z,,,3,,,,,,525.5449999815173,response,,,,2,,,,,,Space,keypress(Space),,,,,- ----- ---- ------------ ------ ------- --- ------ ----<br>--- ---- -- - --------- -------- --- --------- --- ----<br>----- --------- --- ----- ----- services. --- ---- --- ----<br>----- ---- --- --- --- ---- -- -------- ---- - --------- --<br>----- -- ----------- ----- ---- ---- ---- ----- -------- --<br>---------- ---- ----- ----- ---- ------- -----------,121447.94499996351,121447.15999998152,120905.055,120912.27999998955,120921.615,121455.317,,24,services.
screen,html.Screen,3_1_1_25,2021-03-07T04:20:43.991Z,,,3,,,,,,543.8079999729962,response,,,,2,,,,,,Space,keypress(Space),,,,,- ----- ---- ------------ ------ ------- --- ------ ----<br>--- ---- -- - --------- -------- --- --------- --- ----<br>----- --------- --- ----- ----- --------- But ---- --- ----<br>----- ---- --- --- --- ---- -- -------- ---- - --------- --<br>----- -- ----------- ----- ---- ---- ---- ----- -------- --<br>---------- ---- ----- ----- ---- ------- -----------,121999.91499999305,121999.12499997299,121438.713,121448.16999998875,121455.317,122005.553,,25,But
screen,html.Screen,3_1_1_26,2021-03-07T04:20:44.534Z,,,3,,,,,,537.4269999692478,response,,,,2,,,,,,Space,keypress(Space),,,,,- ----- ---- ------------ ------ ------- --- ------ ----<br>--- ---- -- - --------- -------- --- --------- --- ----<br>----- --------- --- ----- ----- --------- --- it's --- ----<br>----- ---- --- --- --- ---- -- -------- ---- - --------- --<br>----- -- ----------- ----- ---- ---- ---- ----- -------- --<br>---------- ---- ----- ----- ---- ------- -----------,122543.72999997577,122542.97999996925,121989.103,122000.13000000035,122005.553,122555.986,,26,it's
screen,html.Screen,3_1_1_27,2021-03-07T04:20:45.030Z,,,3,,,,,,483.00399997181376,response,,,,2,,,,,,Space,keypress(Space),,,,,- ----- ---- ------------ ------ ------- --- ------ ----<br>--- ---- -- - --------- -------- --- --------- --- ----<br>----- --------- --- ----- ----- --------- --- ---- far ----<br>----- ---- --- --- --- ---- -- -------- ---- - --------- --<br>----- -- ----------- ----- ---- ---- ---- ----- -------- --<br>---------- ---- ----- ----- ---- ------- -----------,123039.80999998748,123038.98999997182,122539.342,122543.94999996293,122555.986,123056.382,,27,far
screen,html.Screen,3_1_1_28,2021-03-07T04:20:45.582Z,,,3,,,,,,534.448000001008,response,,,,2,,,,,,Space,keypress(Space),,,,,- ----- ---- ------------ ------ ------- --- ------ ----<br>--- ---- -- - --------- -------- --- --------- --- ----<br>----- --------- --- ----- ----- --------- --- ---- --- from<br>----- ---- --- --- --- ---- -- -------- ---- - --------- --<br>----- -- ----------- ----- ---- ---- ---- ----- -------- --<br>---------- ---- ----- ----- ---- ------- -----------,123591.59999998519,123590.830000001,123039.754,123040.02499999478,123056.382,123606.747,,28,from
screen,html.Screen,3_1_1_29,2021-03-07T04:20:46.150Z,,,3,,,,,,552.0229999799922,response,,,,2,,,,,,Space,keypress(Space),,,,,- ----- ---- ------------ ------ ------- --- ------ ----<br>--- ---- -- - --------- -------- --- --------- --- ----<br>----- --------- --- ----- ----- --------- --- ---- --- ----<br>clear ---- --- --- --- ---- -- -------- ---- - --------- --<br>----- -- ----------- ----- ---- ---- ---- ----- -------- --<br>---------- ---- ----- ----- ---- ------- -----------,124159.59499997552,124158.76999998,123590.126,123591.81999997236,123606.747,124173.782,,29,clear
screen,html.Screen,3_1_1_30,2021-03-07T04:20:46.806Z,,,3,,,,,,640.8079999653855,response,,,,2,,,,,,Space,keypress(Space),,,,,- ----- ---- ------------ ------ ------- --- ------ ----<br>--- ---- -- - --------- -------- --- --------- --- ----<br>----- --------- --- ----- ----- --------- --- ---- --- ----<br>----- that --- --- --- ---- -- -------- ---- - --------- --<br>----- -- ----------- ----- ---- ---- ---- ----- -------- --<br>---------- ---- ----- ----- ---- ------- -----------,124815.36999996752,124814.58999996539,124157.168,124159.82000000076,124173.782,124824.058,,30,that
screen,html.Screen,3_1_1_31,2021-03-07T04:20:47.814Z,,,3,,,,,,998.4169999935693,response,,,,2,,,,,,Space,keypress(Space),,,,,- ----- ---- ------------ ------ ------- --- ------ ----<br>--- ---- -- - --------- -------- --- --------- --- ----<br>----- --------- --- ----- ----- --------- --- ---- --- ----<br>----- ---- the --- --- ---- -- -------- ---- - --------- --<br>----- -- ----------- ----- ---- ---- ---- ----- -------- --<br>---------- ---- ----- ----- ---- ------- -----------,125823.25999997556,125822.47499999357,124807.566,124815.58499997482,124824.058,125850.899,,31,the
screen,html.Screen,3_1_1_32,2021-03-07T04:20:48.526Z,,,3,,,,,,683.4410000128846,response,,,,2,,,,,,Space,keypress(Space),,,,,- ----- ---- ------------ ------ ------- --- ------ ----<br>--- ---- -- - --------- -------- --- --------- --- ----<br>----- --------- --- ----- ----- --------- --- ---- --- ----<br>----- ---- --- law --- ---- -- -------- ---- - --------- --<br>----- -- ----------- ----- ---- ---- ---- ----- -------- --<br>---------- ---- ----- ----- ---- ------- -----------,126535.1199999568,126534.34000001289,125808.305,125823.47999996273,125850.899,126541.889,,32,law
screen,html.Screen,3_1_1_33,2021-03-07T04:20:49.222Z,,,3,,,,,,688.4259999934293,response,,,,2,,,,,,Space,keypress(Space),,,,,- ----- ---- ------------ ------ ------- --- ------ ----<br>--- ---- -- - --------- -------- --- --------- --- ----<br>----- --------- --- ----- ----- --------- --- ---- --- ----<br>----- ---- --- --- can ---- -- -------- ---- - --------- --<br>----- -- ----------- ----- ---- ---- ---- ----- -------- --<br>---------- ---- ----- ----- ---- ------- -----------,127231.15999996662,127230.31499999342,126525.407,126535.32999998424,126541.889,127242.399,,33,can
screen,html.Screen,3_1_1_34,2021-03-07T04:20:50.214Z,,,3,,,,,,980.656000009476,response,,,,2,,,,,,Space,keypress(Space),,,,,- ----- ---- ------------ ------ ------- --- ------ ----<br>--- ---- -- - --------- -------- --- --------- --- ----<br>----- --------- --- ----- ----- --------- --- ---- --- ----<br>----- ---- --- --- --- even -- -------- ---- - --------- --<br>----- -- ----------- ----- ---- ---- ---- ----- -------- --<br>---------- ---- ----- ----- ---- ------- -----------,128223.80999999586,128223.05500000948,127225.829,127231.38999997173,127242.399,128226.451,,34,even
screen,html.Screen,3_1_1_35,2021-03-07T04:20:50.845Z,,,3,,,,,,627.544000012218,response,,,,2,,,,,,Space,keypress(Space),,,,,- ----- ---- ------------ ------ ------- --- ------ ----<br>--- ---- -- - --------- -------- --- --------- --- ----<br>----- --------- --- ----- ----- --------- --- ---- --- ----<br>----- ---- --- --- --- ---- be -------- ---- - --------- --<br>----- -- ----------- ----- ---- ---- ---- ----- -------- --<br>---------- ---- ----- ----- ---- ------- -----------,128854.80999998981,128853.99500001222,128209.881,128224.02999998303,128226.451,128860.181,,35,be
screen,html.Screen,3_1_1_36,2021-03-07T04:20:51.557Z,,,3,,,,,,705.7639999802777,response,,,,2,,,,,,Space,keypress(Space),,,,,- ----- ---- ------------ ------ ------- --- ------ ----<br>--- ---- -- - --------- -------- --- --------- --- ----<br>----- --------- --- ----- ----- --------- --- ---- --- ----<br>----- ---- --- --- --- ---- -- credited ---- - --------- --<br>----- -- ----------- ----- ---- ---- ---- ----- -------- --<br>---------- ---- ----- ----- ---- ------- -----------,129566.66499999119,129565.94499998027,128843.596,128855.03499995684,128860.181,129577.258,,36,credited
screen,html.Screen,3_1_1_37,2021-03-07T04:20:52.133Z,,,3,,,,,,564.5569999808504,response,,,,2,,,,,,Space,keypress(Space),,,,,- ----- ---- ------------ ------ ------- --- ------ ----<br>--- ---- -- - --------- -------- --- --------- --- ----<br>----- --------- --- ----- ----- --------- --- ---- --- ----<br>----- ---- --- --- --- ---- -- -------- with - --------- --<br>----- -- ----------- ----- ---- ---- ---- ----- -------- --<br>---------- ---- ----- ----- ---- ------- -----------,130142.62499997858,130141.81499998085,129560.742,129566.88999995822,129577.258,130162.423,,37,with
screen,html.Screen,3_1_1_38,2021-03-07T04:20:52.669Z,,,3,,,,,,515.31199997566,response,,,,2,,,,,,Space,keypress(Space),,,,,- ----- ---- ------------ ------ ------- --- ------ ----<br>--- ---- -- - --------- -------- --- --------- --- ----<br>----- --------- --- ----- ----- --------- --- ---- --- ----<br>----- ---- --- --- --- ---- -- -------- ---- a --------- --<br>----- -- ----------- ----- ---- ---- ---- ----- -------- --<br>---------- ---- ----- ----- ---- ------- -----------,130678.52999997558,130677.73499997566,130127.74,130142.85000000382,130162.423,130694.716,,38,a
screen,html.Screen,3_1_1_39,2021-03-07T04:20:53.517Z,,,3,,,,,,830.939000004917,response,,,,2,,,,,,Space,keypress(Space),,,,,- ----- ---- ------------ ------ ------- --- ------ ----<br>--- ---- -- - --------- -------- --- --------- --- ----<br>----- --------- --- ----- ----- --------- --- ---- --- ----<br>----- ---- --- --- --- ---- -- -------- ---- - reduction --<br>----- -- ----------- ----- ---- ---- ---- ----- -------- --<br>---------- ---- ----- ----- ---- ------- -----------,131526.42999996897,131525.65500000492,130678.065,130678.75999998068,130694.716,131528.591,,39,reduction
screen,html.Screen,3_1_1_40,2021-03-07T04:20:54.117Z,,,3,,,,,,596.9089999655553,response,,,,2,,,,,,Space,keypress(Space),,,,,- ----- ---- ------------ ------ ------- --- ------ ----<br>--- ---- -- - --------- -------- --- --------- --- ----<br>----- --------- --- ----- ----- --------- --- ---- --- ----<br>----- ---- --- --- --- ---- -- -------- ---- - --------- in<br>----- -- ----------- ----- ---- ---- ---- ----- -------- --<br>---------- ---- ----- ----- ---- ------- -----------,132126.25999999,132125.49999996554,131512.02,131526.6549999942,131528.591,132128.989,,40,in
screen,html.Screen,3_1_1_41,2021-03-07T04:20:54.749Z,,,3,,,,,,628.3960000044317,response,,,,2,,,,,,Space,keypress(Space),,,,,- ----- ---- ------------ ------ ------- --- ------ ----<br>--- ---- -- - --------- -------- --- --------- --- ----<br>----- --------- --- ----- ----- --------- --- ---- --- ----<br>----- ---- --- --- --- ---- -- -------- ---- - --------- --<br>crime -- ----------- ----- ---- ---- ---- ----- -------- --<br>---------- ---- ----- ----- ---- ------- -----------,132758.0949999974,132757.38500000443,132112.397,132126.47999997716,132128.989,132762.695,,41,crime
screen,html.Screen,3_1_1_42,2021-03-07T04:20:55.349Z,,,3,,,,,,594.4999999895808,response,,,,2,,,,,,Space,keypress(Space),,,,,- ----- ---- ------------ ------ ------- --- ------ ----<br>--- ---- -- - --------- -------- --- --------- --- ----<br>----- --------- --- ----- ----- --------- --- ---- --- ----<br>----- ---- --- --- --- ---- -- -------- ---- - --------- --<br>----- in ----------- ----- ---- ---- ---- ----- -------- --<br>---------- ---- ----- ----- ---- ------- -----------,133357.9449999961,133357.1949999896,132746.082,132758.3100000047,132762.695,133363.13,,42,in
screen,html.Screen,3_1_1_43,2021-03-07T04:20:56.045Z,,,3,,,,,,689.949999983306,response,,,,2,,,,,,Space,keypress(Space),,,,,- ----- ---- ------------ ------ ------- --- ------ ----<br>--- ---- -- - --------- -------- --- --------- --- ----<br>----- --------- --- ----- ----- --------- --- ---- --- ----<br>----- ---- --- --- --- ---- -- -------- ---- - --------- --<br>----- -- California. ----- ---- ---- ---- ----- -------- --<br>---------- ---- ----- ----- ---- ------- -----------,134053.8499999675,134053.0799999833,133346.532,133358.16499998327,133363.13,134063.425,,43,California.
screen,html.Screen,3_1_1_44,2021-03-07T04:20:56.733Z,,,3,,,,,,677.6949999624048,response,,,,2,,,,,,Space,keypress(Space),,,,,- ----- ---- ------------ ------ ------- --- ------ ----<br>--- ---- -- - --------- -------- --- --------- --- ----<br>----- --------- --- ----- ----- --------- --- ---- --- ----<br>----- ---- --- --- --- ---- -- -------- ---- - --------- --<br>----- -- ----------- While ---- ---- ---- ----- -------- --<br>---------- ---- ----- ----- ---- ------- -----------,134742.024999985,134741.1199999624,134046.963,134054.05499995686,134063.425,134747.339,,44,While
screen,html.Screen,3_1_1_45,2021-03-07T04:20:57.485Z,,,3,,,,,,745.7259999878297,response,,,,2,,,,,,Space,keypress(Space),,,,,- ----- ---- ------------ ------ ------- --- ------ ----<br>--- ---- -- - --------- -------- --- --------- --- ----<br>----- --------- --- ----- ----- --------- --- ---- --- ----<br>----- ---- --- --- --- ---- -- -------- ---- - --------- --<br>----- -- ----------- ----- it's ---- ---- ----- -------- --<br>---------- ---- ----- ----- ---- ------- -----------,135493.9000000013,135493.06499998784,134730.775,134742.3499999568,134747.339,135497.871,,45,it's
screen,html.Screen,3_1_1_46,2021-03-07T04:20:58.156Z,,,3,,,,,,667.0439999720838,response,,,,2,,,,,,Space,keypress(Space),,,,,- ----- ---- ------------ ------ ------- --- ------ ----<br>--- ---- -- - --------- -------- --- --------- --- ----<br>----- --------- --- ----- ----- --------- --- ---- --- ----<br>----- ---- --- --- --- ---- -- -------- ---- - --------- --<br>----- -- ----------- ----- ---- true ---- ----- -------- --<br>---------- ---- ----- ----- ---- ------- -----------,136165.63999996288,136164.9149999721,135481.309,135494.12499996834,135497.871,136181.652,,46,true
screen,html.Screen,3_1_1_47,2021-03-07T04:20:58.884Z,,,3,,,,,,711.1129999968689,response,,,,2,,,,,,Space,keypress(Space),,,,,- ----- ---- ------------ ------ ------- --- ------ ----<br>--- ---- -- - --------- -------- --- --------- --- ----<br>----- --------- --- ----- ----- --------- --- ---- --- ----<br>----- ---- --- --- --- ---- -- -------- ---- - --------- --<br>----- -- ----------- ----- ---- ---- that ----- -------- --<br>---------- ---- ----- ----- ---- ------- -----------,136893.60000001034,136892.76499999687,136165.068,136165.86000000825,136181.652,136898.784,,47,that
screen,html.Screen,3_1_1_48,2021-03-07T04:20:59.468Z,,,3,,,,,,577.8909999835014,response,,,,2,,,,,,Space,keypress(Space),,,,,- ----- ---- ------------ ------ ------- --- ------ ----<br>--- ---- -- - --------- -------- --- --------- --- ----<br>----- --------- --- ----- ----- --------- --- ---- --- ----<br>----- ---- --- --- --- ---- -- -------- ---- - --------- --<br>----- -- ----------- ----- ---- ---- ---- crime -------- --<br>---------- ---- ----- ----- ---- ------- -----------,137477.4749999633,137476.67499998352,136882.186,136893.82499997737,136898.784,137482.503,,48,crime
screen,html.Screen,3_1_1_49,2021-03-07T04:21:00.156Z,,,3,,,,,,682.0420000069134,response,,,,2,,,,,,Space,keypress(Space),,,,,- ----- ---- ------------ ------ ------- --- ------ ----<br>--- ---- -- - --------- -------- --- --------- --- ----<br>----- --------- --- ----- ----- --------- --- ---- --- ----<br>----- ---- --- --- --- ---- -- -------- ---- - --------- --<br>----- -- ----------- ----- ---- ---- ---- ----- declined --<br>---------- ---- ----- ----- ---- ------- -----------,138165.28999997536,138164.5450000069,137465.9,137477.7049999684,137482.503,138182.955,,49,declined
screen,html.Screen,3_1_1_50,2021-03-07T04:21:00.885Z,,,3,,,,,,710.3799999715702,response,,,,2,,,,,,Space,keypress(Space),,,,,- ----- ---- ------------ ------ ------- --- ------ ----<br>--- ---- -- - --------- -------- --- --------- --- ----<br>----- --------- --- ----- ----- --------- --- ---- --- ----<br>----- ---- --- --- --- ---- -- -------- ---- - --------- --<br>----- -- ----------- ----- ---- ---- ---- ----- -------- in<br>---------- ---- ----- ----- ---- ------- -----------,138894.11499997368,138893.33499997156,138149.694,138165.50999996252,138182.955,138900.09,,50,in
screen,html.Screen,3_1_1_51,2021-03-07T04:21:01.548Z,,,3,,,,,,656.1500000053493,response,,,,2,,,,,,Space,keypress(Space),,,,,- ----- ---- ------------ ------ ------- --- ------ ----<br>--- ---- -- - --------- -------- --- --------- --- ----<br>----- --------- --- ----- ----- --------- --- ---- --- ----<br>----- ---- --- --- --- ---- -- -------- ---- - --------- --<br>----- -- ----------- ----- ---- ---- ---- ----- -------- --<br>California ---- ----- ----- ---- ------- -----------,139557.03500000527,139556.24000000535,138883.512,138894.33999999892,138900.09,139567.047,,51,California
screen,html.Screen,3_1_1_52,2021-03-07T04:21:02.196Z,,,3,,,,,,637.2279999673192,response,,,,2,,,,,,Space,keypress(Space),,,,,- ----- ---- ------------ ------ ------- --- ------ ----<br>--- ---- -- - --------- -------- --- --------- --- ----<br>----- --------- --- ----- ----- --------- --- ---- --- ----<br>----- ---- --- --- --- ---- -- -------- ---- - --------- --<br>----- -- ----------- ----- ---- ---- ---- ----- -------- --<br>---------- last ----- ----- ---- ------- -----------,140205.00999997603,140204.2749999673,139550.612,139557.2599999723,139567.047,140217.535,,52,last
screen,html.Screen,3_1_1_53,2021-03-07T04:21:02.811Z,,,3,,,,,,602.4800000047835,response,,,,2,,,,,,Space,keypress(Space),,,,,"- ----- ---- ------------ ------ ------- --- ------ ----<br>--- ---- -- - --------- -------- --- --------- --- ----<br>----- --------- --- ----- ----- --------- --- ---- --- ----<br>----- ---- --- --- --- ---- -- -------- ---- - --------- --<br>----- -- ----------- ----- ---- ---- ---- ----- -------- --<br>---------- ---- year, ----- ---- ------- -----------",140820.78499998897,140820.0150000048,140201.015,140205.22000000346,140217.535,140834.687,,53,"year,"
screen,html.Screen,3_1_1_54,2021-03-07T04:21:03.331Z,,,3,,,,,,505.348000001075,response,,,,2,,,,,,Space,keypress(Space),,,,,- ----- ---- ------------ ------ ------- --- ------ ----<br>--- ---- -- - --------- -------- --- --------- --- ----<br>----- --------- --- ----- ----- --------- --- ---- --- ----<br>----- ---- --- --- --- ---- -- -------- ---- - --------- --<br>----- -- ----------- ----- ---- ---- ---- ----- -------- --<br>---------- ---- ----- crime ---- ------- -----------,141340.77999996953,141340.03500000108,140818.086,140821.009999956,140834.687,141351.59,,54,crime
screen,html.Screen,3_1_1_55,2021-03-07T04:21:03.876Z,,,3,,,,,,532.4000000020897,response,,,,2,,,,,,Space,keypress(Space),,,,,- ----- ---- ------------ ------ ------- --- ------ ----<br>--- ---- -- - --------- -------- --- --------- --- ----<br>----- --------- --- ----- ----- --------- --- ---- --- ----<br>----- ---- --- --- --- ---- -- -------- ---- - --------- --<br>----- -- ----------- ----- ---- ---- ---- ----- -------- --<br>---------- ---- ----- ----- also ------- -----------,141884.7400000086,141883.9900000021,141335.074,141340.9999999567,141351.59,141902.064,,55,also
