sender,sender_type,sender_id,timestamp,meta,,Blues,Classical,Country,Dance,Electronic,Folk,Gospel,Hip-Hop,Jazz,Latin,Musical/Film,New-age,Pop,Provo_ID,R&B,Rap,Reggae,Religious,Rock,Soul,Swing,Traditional,age,artist_name,correct,correctResponse,distraction,duration,education,ended_on,familiarity,gender,headphone_check_performance,item,list,music_frequency,offensiveness,pleasantness,position_correct,preference,response,response_action,snippet_file,song_name,song_rating,sound,stimulus_1,stimulus_2,stimulus_3,text,time_commit,time_end,time_render,time_run,time_show,time_switch,url,word,word_ID
Introduction,html.Screen,0_0,2021-04-19T00:44:46.033Z,"{""labjs_version"":""20.2.2"",""labjs_build"":{""flavor"":""production"",""commit"":""a25486e0c714a0ae2ce03ff94b7bb6896854dcfa""},""location"":""https://run.pavlovia.org/mvasilev/music_e/"",""userAgent"":""Mozilla/5.0 (Windows NT 10.0; Win64; x64) AppleWebKit/537.36 (KHTML, like Gecko) Chrome/89.0.4389.114 Safari/537.36 Edg/89.0.774.75"",""platform"":""Win32"",""language"":""en-GB"",""locale"":""en-GB"",""timeZone"":""Europe/London"",""timezoneOffset"":-60,""screen_width"":1536,""screen_height"":864,""scroll_width"":2048,""scroll_height"":957,""window_innerWidth"":2048,""window_innerHeight"":1005,""devicePixelRatio"":0.9375}",,,,,,,,,,,,,,,,,,,,,,,,,,,,,3273.5319999798085,,response,,,,,,,,,,,continue,click button,,,,,,,,,11733.189999940805,11731.069999979809,8440.833,8429.394999984652,8457.538,11742.16,{},,
Volume calibration,html.Screen,0_1,2021-04-19T00:44:55.486Z,,,,,,,,,,,,,,,,,,,,,,,,,,,,,,9439.374999981523,,response,,,,,,,,,,,continue,click button,,,,,,,,,21185.84499997087,21181.534999981523,11725.42,11733.565000002272,11742.16,21212.411,,,
Task instructions,html.Screen,0_2,2021-04-19T00:44:56.914Z,,,,,,,,,,,,,,,,,,,,,,,,,,,,,,1400.1140000040978,,response,,,,,,,,,,,continue,click button,,,,,,,,,22613.804999971762,22612.525000004098,21195.764,21188.81500000134,21212.411,22629.627,,,
Sounds,html.Screen,0_3_0_0,2021-04-19T00:45:01.169Z,,,,,,,,,,,,,,,,,,,,,,,,,,,,,,4251.876,,timeout,,,,,,,,,3,,,,,,,,I,O,S,,26868.244999903254,26864.605,22612.927,22614.169999957085,22629.627,26881.503,,,
Judgement,html.Screen,0_3_0_1,2021-04-19T00:45:01.859Z,,,,,,,,,,,,,,,,,,,,,,,,,,,true,3,,676.1619999711656,,response,,,,,,,,,3,,3,click #choice-3,,,,,I,O,S,,27558.99499997031,27557.664999971166,26864.605,26868.509999942034,26881.503,27564.857,,,
Trial,flow.Sequence,0_3_0,2021-04-19T00:45:01.860Z,,,,,,,,,,,,,,,,,,,,,,,,,,,,,,4928.037999971166,,completion,,,,,,,,,3,,,,,,,,I,O,S,,27559.499999973923,27557.664999971166,22612.927,22614.08999993,22629.627,27564.857,,,
Sounds,html.Screen,0_3_1_0,2021-04-19T00:45:06.102Z,,,,,,,,,,,,,,,,,,,,,,,,,,,,,,4251.598000000002,,timeout,,,,,,,,,3,,,,,,,,O,I,S,,31801.404999918304,31800.186,27548.306,27559.724999940954,27564.857,31816.455,,,
Judgement,html.Screen,0_3_1_1,2021-04-19T00:45:07.895Z,,,,,,,,,,,,,,,,,,,,,,,,,,,true,3,,1777.40499990627,,response,,,,,,,,,3,,3,click #choice-3,,,,,O,I,S,,33595.169999985956,33593.85999990627,31800.186,31801.64999992121,31816.455,33600.489,,,
Trial,flow.Sequence,0_3_1,2021-04-19T00:45:07.896Z,,,,,,,,,,,,,,,,,,,,,,,,,,,,,,6029.002999906272,,completion,,,,,,,,,3,,,,,,,,O,I,S,,33595.4849999398,33593.85999990627,27548.306,27559.659999911673,27564.857,33600.489,,,
Sounds,html.Screen,0_3_2_0,2021-04-19T00:45:12.136Z,,,,,,,,,,,,,,,,,,,,,,,,,,,,,,4251.678,,timeout,,,,,,,,,2,,,,,,,,O,S,I,,37836.10499999486,37835.407,33583.784,33595.70999990683,33600.489,37852.167,,,
Judgement,html.Screen,0_3_2_1,2021-04-19T00:45:13.056Z,,,,,,,,,,,,,,,,,,,,,,,,,,,true,2,,902.2729999314906,,response,,,,,,,,,2,,2,click #choice-2,,,,,O,S,I,,38755.919999908656,38754.43999993149,37835.407,37836.29000000656,37852.167,38769.12,,,
Trial,flow.Sequence,0_3_2,2021-04-19T00:45:13.057Z,,,,,,,,,,,,,,,,,,,,,,,,,,,,,,5153.9509999314905,,completion,,,,,,,,,2,,,,,,,,O,S,I,,38756.22999994084,38754.43999993149,33583.784,33595.63999995589,33600.489,38769.12,,,
Sounds,html.Screen,0_3_3_0,2021-04-19T00:45:17.305Z,,,,,,,,,,,,,,,,,,,,,,,,,,,,,,4251.603999999999,,timeout,,,,,,,,,2,,,,,,,,I,S,O,,43004.919999977574,43004.064,38752.402,38756.43999991007,38769.12,43020.724,,,
Judgement,html.Screen,0_3_3_1,2021-04-19T00:45:18.114Z,,,,,,,,,,,,,,,,,,,,,,,,,,,true,2,,791.375999980999,,response,,,,,,,,,2,,2,click #choice-2,,,,,I,S,O,,43813.28999996185,43812.099999981,43004.064,43005.0999999512,43020.724,43821.036,,,
Trial,flow.Sequence,0_3_3,2021-04-19T00:45:18.114Z,,,,,,,,,,,,,,,,,,,,,,,,,,,,,,5042.979999980998,,completion,,,,,,,,,2,,,,,,,,I,S,O,,43813.56499996036,43812.099999981,38752.402,38756.36499992106,38769.12,43821.036,,,
Sounds,html.Screen,0_3_4_0,2021-04-19T00:45:22.357Z,,,,,,,,,,,,,,,,,,,,,,,,,,,,,,4251.614000000001,,timeout,,,,,,,,,1,,,,,,,,S,O,I,,48056.99499999173,48055.971,43804.396,43813.74499993399,43821.036,48072.65,,,
Judgement,html.Screen,0_3_4_1,2021-04-19T00:45:23.251Z,,,,,,,,,,,,,,,,,,,,,,,,,,,true,1,,876.9799999300376,,response,,,,,,,,,1,,1,click #choice-1,,,,,S,O,I,,48950.87499998044,48949.62999993004,48055.971,48057.165000005625,48072.65,48956.364,,,
Trial,flow.Sequence,0_3_4,2021-04-19T00:45:23.251Z,,,,,,,,,,,,,,,,,,,,,,,,,,,,,,5128.593999930039,,completion,,,,,,,,,1,,,,,,,,S,O,I,,48951.13999990281,48949.62999993004,43804.396,43813.69499990251,43821.036,48956.364,,,
Sounds,html.Screen,0_3_5_0,2021-04-19T00:45:27.493Z,,,,,,,,,,,,,,,,,,,,,,,,,,,,,,4251.633999999998,,timeout,,,,,,,,,1,,,,,,,,S,I,O,,53192.73999996949,53191.6,48939.608,48951.31999999285,48956.364,53207.998,,,
Judgement,html.Screen,0_3_5_1,2021-04-19T00:45:28.211Z,,,,,,,,,,,,,,,,,,,,,,,,,,,true,1,,701.8819999337647,,response,,,,,,,,,1,,1,click #choice-1,,,,,S,I,O,,53911.129999905825,53909.879999933764,53191.6,53192.960000014864,53207.998,53924.906,,,
Trial,flow.Sequence,0_3_5,2021-04-19T00:45:28.212Z,,,,,,,,,,,,,,,,,,,,,,,,,,,,,,4953.515999933763,,completion,,,,,,,,,1,,,,,,,,S,I,O,,53911.394999944605,53909.879999933764,48939.608,48951.26999996137,48956.364,53924.906,,,
Task,flow.Loop,0_3,2021-04-19T00:45:28.218Z,,,,,,,,,,,,,,,,,,,,,,,,,,,,,,31280.252999933764,,completion,,,1,,,,,,,,,,,,,,,,,,53917.43499995209,53909.879999933764,22612.927,22614.01499994099,22629.627,53924.906,,,
Trap,html.Screen,0_4,2021-04-19T00:45:28.221Z,,,,,,,,,,,,,,,,,,,,,,,,,,,,,,NaN,,skipped,,,,,,,,,,,,,,,,,,,,,53920.58999999426,53909.879999933764,,53920.404999982566,,53924.906,,,
Thanks,html.Screen,0_5,2021-04-19T00:45:32.399Z,,,,,,,,,,,,,,,,,,,,,,,,,,,,,,4172.848999995229,,response,,,,,,,,,,,continue,click button,,,,,,,,,58099.12499994971,58097.75499999523,53908.208,53920.74999993201,53924.906,61027.653,,,
Headphone screening,flow.Sequence,0,2021-04-19T00:45:32.400Z,,,,,,,,,,,,,,,,,,,,,,,,,,,,,,49640.21699999523,,completion,,,,,,,,,,,,,,,,,,,,,58099.39999994822,58097.75499999523,8440.833,8429.344999953173,8457.538,61027.653,,,
Instructions,html.Page,1_0,2021-04-19T00:45:36.907Z,,,,,,,,,,,,,,,,,,,,,,,,,,,,,,1582.2369999633447,,form submission,,,,,,,,,,,,,,,,,,,,,62610.61500001233,62609.88999996334,61010.972,61009.71499993466,61027.653,62611.624,,,
Holding screen,html.Screen,1_1_0_0,2021-04-19T00:45:46.896Z,,,,,,,,,,,,,,,,,,,,,,,,,,,,,,10003.839,,timeout,,,,,,,,,,,,,,,,,,,,,72599.54999992624,72598.72,62594.857,62610.9099999303,62611.624,72615.463,,,
screen,html.Screen,1_1_0_1_0,2021-04-19T00:45:47.870Z,,,,,,,,,,,,,,,,53,,,,,,,,,,,,,,954.5369999487739,,response,,,,99,,,,,,,Space,keypress(Space),,,,,,,,When -- ----- -- ------ - ------- --- ----------<br>------------- ------ ------ ---- ---- ------- ----- -- ----<br>-------- ------- -- ---------- --- - --- ----- ----- ----<br>---- --- --- ----- --- ---- ---- ------- ----- ---- -------<br>--- --- -- ----- -- --- ---- -- --- ---- -- ------ ------<br>--- ----- -- ----,73573.45499994699,73569.99999994878,72598.72,72599.82499992475,72615.463,73582.434,,0,When
screen,html.Screen,1_1_0_1_1,2021-04-19T00:45:48.388Z,,,,,,,,,,,,,,,,53,,,,,,,,,,,,,,508.10099996662757,,response,,,,99,,,,,,,Space,keypress(Space),,,,,,,,---- it ----- -- ------ - ------- --- ----------<br>------------- ------ ------ ---- ---- ------- ----- -- ----<br>-------- ------- -- ---------- --- - --- ----- ----- ----<br>---- --- --- ----- --- ---- ---- ------- ----- ---- -------<br>--- --- -- ----- -- --- ---- -- --- ---- -- ------ ------<br>--- ----- -- ----,74091.62999992259,74090.53499996662,73565.352,73575.29499998782,73582.434,74099.299,,1,it
screen,html.Screen,1_1_0_1_2,2021-04-19T00:45:48.791Z,,,,,,,,,,,,,,,,53,,,,,,,,,,,,,,394.81600000860635,,response,,,,99,,,,,,,Space,keypress(Space),,,,,,,,---- -- comes -- ------ - ------- --- ----------<br>------------- ------ ------ ---- ---- ------- ----- -- ----<br>-------- ------- -- ---------- --- - --- ----- ----- ----<br>---- --- --- ----- --- ---- ---- ------- ----- ---- -------<br>--- --- -- ----- -- --- ---- -- --- ---- -- ------ ------<br>--- ----- -- ----,74495.0349999126,74494.1150000086,74082.72,74091.84999996796,74099.299,74499.463,,2,comes
screen,html.Screen,1_1_0_1_3,2021-04-19T00:45:49.116Z,,,,,,,,,,,,,,,,53,,,,,,,,,,,,,,319.556999937151,,response,,,,99,,,,,,,Space,keypress(Space),,,,,,,,---- -- ----- to ------ - ------- --- ----------<br>------------- ------ ------ ---- ---- ------- ----- -- ----<br>-------- ------- -- ---------- --- - --- ----- ----- ----<br>---- --- --- ----- --- ---- ---- ------- ----- ---- -------<br>--- --- -- ----- -- --- ---- -- --- ---- -- ------ ------<br>--- ----- -- ----,74819.90499992389,74819.01999993715,74482.922,74495.22499996237,74499.463,74832.976,,3,to
screen,html.Screen,1_1_0_1_4,2021-04-19T00:45:49.401Z,,,,,,,,,,,,,,,,53,,,,,,,,,,,,,,271.18899990970385,,response,,,,99,,,,,,,Space,keypress(Space),,,,,,,,---- -- ----- -- having - ------- --- ----------<br>------------- ------ ------ ---- ---- ------- ----- -- ----<br>-------- ------- -- ---------- --- - --- ----- ----- ----<br>---- --- --- ----- --- ---- ---- ------- ----- ---- -------<br>--- --- -- ----- -- --- ---- -- --- ---- -- ------ ------<br>--- ----- -- ----,75105.06500001065,75104.1649999097,74816.116,74820.13000000734,74832.976,75116.418,,4,having
screen,html.Screen,1_1_0_1_5,2021-04-19T00:45:49.696Z,,,,,,,,,,,,,,,,53,,,,,,,,,,,,,,282.61199997138465,,response,,,,99,,,,,,,Space,keypress(Space),,,,,,,,---- -- ----- -- ------ a ------- --- ----------<br>------------- ------ ------ ---- ---- ------- ----- -- ----<br>-------- ------- -- ---------- --- - --- ----- ----- ----<br>---- --- --- ----- --- ---- ---- ------- ----- ---- -------<br>--- --- -- ----- -- --- ---- -- --- ---- -- ------ ------<br>--- ----- -- ----,75399.91499995813,75399.02999997139,75099.821,75105.25499994401,75116.418,75416.617,,5,a
screen,html.Screen,1_1_0_1_6,2021-04-19T00:45:49.973Z,,,,,,,,,,,,,,,,53,,,,,,,,,,,,,,259.34799994397326,,response,,,,99,,,,,,,Space,keypress(Space),,,,,,,,---- -- ----- -- ------ - lasting --- ----------<br>------------- ------ ------ ---- ---- ------- ----- -- ----<br>-------- ------- -- ---------- --- - --- ----- ----- ----<br>---- --- --- ----- --- ---- ---- ------- ----- ---- -------<br>--- --- -- ----- -- --- ---- -- --- ---- -- ------ ------<br>--- ----- -- ----,75676.89499992412,75675.96499994397,75399.969,75400.1350000035,75416.617,75683.237,,6,lasting
screen,html.Screen,1_1_0_1_7,2021-04-19T00:45:50.485Z,,,,,,,,,,,,,,,,53,,,,,,,,,,,,,,504.2229999282572,,response,,,,99,,,,,,,Space,keypress(Space),,,,,,,,---- -- ----- -- ------ - ------- and ----------<br>------------- ------ ------ ---- ---- ------- ----- -- ----<br>-------- ------- -- ---------- --- - --- ----- ----- ----<br>---- --- --- ----- --- ---- ---- ------- ----- ---- -------<br>--- --- -- ----- -- --- ---- -- --- ---- -- ------ ------<br>--- ----- -- ----,76188.33999999333,76187.45999992825,75666.747,75677.12000000756,75683.237,76200.105,,7,and
screen,html.Screen,1_1_0_1_8,2021-04-19T00:45:50.863Z,,,,,,,,,,,,,,,,53,,,,,,,,,,,,,,366.2349999029975,,response,,,,99,,,,,,,Space,keypress(Space),,,,,,,,---- -- ----- -- ------ - ------- --- fulfilling<br>------------- ------ ------ ---- ---- ------- ----- -- ----<br>-------- ------- -- ---------- --- - --- ----- ----- ----<br>---- --- --- ----- --- ---- ---- ------- ----- ---- -------<br>--- --- -- ----- -- --- ---- -- --- ---- -- ------ ------<br>--- ----- -- ----,76567.19500001054,76566.339999903,76183.236,76188.52500000503,76200.105,76583.588,,8,fulfilling
screen,html.Screen,1_1_0_1_9,2021-04-19T00:45:51.178Z,,,,,,,,,,,,,,,,53,,,,,,,,,,,,,,297.7570000015985,,response,,,,99,,,,,,,Space,keypress(Space),,,,,,,,"---- -- ----- -- ------ - ------- --- ----------<br>relationship, ------ ------ ---- ---- ------- ----- -- ----<br>-------- ------- -- ---------- --- - --- ----- ----- ----<br>---- --- --- ----- --- ---- ---- ------- ----- ---- -------<br>--- --- -- ----- -- --- ---- -- --- ---- -- ------ ------<br>--- ----- -- ----",76882.24499998614,76881.3450000016,76567.104,76567.41999997757,76583.588,76909.459,,9,"relationship,"
screen,html.Screen,1_1_0_1_10,2021-04-19T00:45:51.471Z,,,,,,,,,,,,,,,,53,,,,,,,,,,,,,,264.6159999880765,,response,,,,99,,,,,,,Space,keypress(Space),,,,,,,,---- -- ----- -- ------ - ------- --- ----------<br>------------- common ------ ---- ---- ------- ----- -- ----<br>-------- ------- -- ---------- --- - --- ----- ----- ----<br>---- --- --- ----- --- ---- ---- ------- ----- ---- -------<br>--- --- -- ----- -- --- ---- -- --- ---- -- ------ ------<br>--- ----- -- ----,77174.95999997482,77174.07499998808,76866.928,76882.45999999344,76909.459,77183.753,,10,common
screen,html.Screen,1_1_0_1_11,2021-04-19T00:45:51.758Z,,,,,,,,,,,,,,,,53,,,,,,,,,,,,,,277.1969999787689,,response,,,,99,,,,,,,Space,keypress(Space),,,,,,,,---- -- ----- -- ------ - ------- --- ----------<br>------------- ------ wisdom ---- ---- ------- ----- -- ----<br>-------- ------- -- ---------- --- - --- ----- ----- ----<br>---- --- --- ----- --- ---- ---- ------- ----- ---- -------<br>--- --- -- ----- -- --- ---- -- --- ---- -- ------ ------<br>--- ----- -- ----,77461.84000000358,77460.94999997877,77167.449,77175.17499998212,77183.753,77467.223,,11,wisdom
screen,html.Screen,1_1_0_1_12,2021-04-19T00:45:52.059Z,,,,,,,,,,,,,,,,53,,,,,,,,,,,,,,294.84200001717545,,response,,,,99,,,,,,,Space,keypress(Space),,,,,,,,---- -- ----- -- ------ - ------- --- ----------<br>------------- ------ ------ says ---- ------- ----- -- ----<br>-------- ------- -- ---------- --- - --- ----- ----- ----<br>---- --- --- ----- --- ---- ---- ------- ----- ---- -------<br>--- --- -- ----- -- --- ---- -- --- ---- -- ------ ------<br>--- ----- -- ----,77762.92499992996,77762.06500001717,77450.508,77462.05999993253,77467.223,77767.348,,12,says
screen,html.Screen,1_1_0_1_13,2021-04-19T00:45:52.324Z,,,,,,,,,,,,,,,,53,,,,,,,,,,,,,,259.1919999916572,,response,,,,99,,,,,,,Space,keypress(Space),,,,,,,,---- -- ----- -- ------ - ------- --- ----------<br>------------- ------ ------ ---- that ------- ----- -- ----<br>-------- ------- -- ---------- --- - --- ----- ----- ----<br>---- --- --- ----- --- ---- ---- ------- ----- ---- -------<br>--- --- -- ----- -- --- ---- -- --- ---- -- ------ ------<br>--- ----- -- ----,78027.4249999784,78026.53999999166,77750.562,77763.11499997973,77767.348,78034.114,,13,that
screen,html.Screen,1_1_0_1_14,2021-04-19T00:45:52.608Z,,,,,,,,,,,,,,,,53,,,,,,,,,,,,,,276.6859999774606,,response,,,,99,,,,,,,Space,keypress(Space),,,,,,,,---- -- ----- -- ------ - ------- --- ----------<br>------------- ------ ------ ---- ---- feeling ----- -- ----<br>-------- ------- -- ---------- --- - --- ----- ----- ----<br>---- --- --- ----- --- ---- ---- ------- ----- ---- -------<br>--- --- -- ----- -- --- ---- -- --- ---- -- ------ ------<br>--- ----- -- ----,78311.699999962,78310.79999997746,78018.365,78027.64499990735,78034.114,78317.537,,14,feeling
screen,html.Screen,1_1_0_1_15,2021-04-19T00:45:52.853Z,,,,,,,,,,,,,,,,53,,,,,,,,,,,,,,238.36299991935084,,response,,,,99,,,,,,,Space,keypress(Space),,,,,,,,---- -- ----- -- ------ - ------- --- ----------<br>------------- ------ ------ ---- ---- ------- close -- ----<br>-------- ------- -- ---------- --- - --- ----- ----- ----<br>---- --- --- ----- --- ---- ---- ------- ----- ---- -------<br>--- --- -- ----- -- --- ---- -- --- ---- -- ------ ------<br>--- ----- -- ----,78556.66000000201,78555.89999991935,78301.136,78311.92499992903,78317.537,78567.626,,15,close
screen,html.Screen,1_1_0_1_16,2021-04-19T00:45:53.140Z,,,,,,,,,,,,,,,,53,,,,,,,,,,,,,,275.5189999334252,,response,,,,99,,,,,,,Space,keypress(Space),,,,,,,,---- -- ----- -- ------ - ------- --- ----------<br>------------- ------ ------ ---- ---- ------- ----- to ----<br>-------- ------- -- ---------- --- - --- ----- ----- ----<br>---- --- --- ----- --- ---- ---- ------- ----- ---- -------<br>--- --- -- ----- -- --- ---- -- --- ---- -- ------ ------<br>--- ----- -- ----,78843.98999996483,78843.14499993343,78550.835,78556.86499993317,78567.626,78851.088,,16,to
screen,html.Screen,1_1_0_1_17,2021-04-19T00:45:53.468Z,,,,,,,,,,,,,,,,53,,,,,,,,,,,,,,320.156999975894,,response,,,,99,,,,,,,Space,keypress(Space),,,,,,,,---- -- ----- -- ------ - ------- --- ----------<br>------------- ------ ------ ---- ---- ------- ----- -- your<br>-------- ------- -- ---------- --- - --- ----- ----- ----<br>---- --- --- ----- --- ---- ---- ------- ----- ---- -------<br>--- --- -- ----- -- --- ---- -- --- ---- -- ------ ------<br>--- ----- -- ----,79172.17999999411,79171.2449999759,78834.307,78844.21499993186,78851.088,79184.601,,17,your
screen,html.Screen,1_1_0_1_18,2021-04-19T00:45:53.738Z,,,,,,,,,,,,,,,,53,,,,,,,,,,,,,,256.40399991328013,,response,,,,99,,,,,,,Space,keypress(Space),,,,,,,,---- -- ----- -- ------ - ------- --- ----------<br>------------- ------ ------ ---- ---- ------- ----- -- ----<br>romantic ------- -- ---------- --- - --- ----- ----- ----<br>---- --- --- ----- --- ---- ---- ------- ----- ---- -------<br>--- --- -- ----- -- --- ---- -- --- ---- -- ------ ------<br>--- ----- -- ----,79441.93500000983,79441.00499991328,79167.708,79172.38499992527,79184.601,79451.604,,18,romantic
screen,html.Screen,1_1_0_1_19,2021-04-19T00:45:54.026Z,,,,,,,,,,,,,,,,53,,,,,,,,,,,,,,277.25099999392114,,response,,,,99,,,,,,,Space,keypress(Space),,,,,,,,---- -- ----- -- ------ - ------- --- ----------<br>------------- ------ ------ ---- ---- ------- ----- -- ----<br>-------- partner -- ---------- --- - --- ----- ----- ----<br>---- --- --- ----- --- ---- ---- ------- ----- ---- -------<br>--- --- -- ----- -- --- ---- -- --- ---- -- ------ ------<br>--- ----- -- ----,79729.72499998286,79728.85499999393,79434.867,79442.12499994319,79451.604,79734.754,,19,partner
screen,html.Screen,1_1_0_1_20,2021-04-19T00:45:54.317Z,,,,,,,,,,,,,,,,53,,,,,,,,,,,,,,285.5059999029181,,response,,,,99,,,,,,,Space,keypress(Space),,,,,,,,---- -- ----- -- ------ - ------- --- ----------<br>------------- ------ ------ ---- ---- ------- ----- -- ----<br>-------- ------- is ---------- --- - --- ----- ----- ----<br>---- --- --- ----- --- ---- ---- ------- ----- ---- -------<br>--- --- -- ----- -- --- ---- -- --- ---- -- ------ ------<br>--- ----- -- ----,80021.11500001047,80020.25999990292,79717.939,79729.94499991182,79734.754,80034.854,,20,is
screen,html.Screen,1_1_0_1_21,2021-04-19T00:45:54.621Z,,,,,,,,,,,,,,,,53,,,,,,,,,,,,,,289.0359999996581,,response,,,,99,,,,,,,Space,keypress(Space),,,,,,,,---- -- ----- -- ------ - ------- --- ----------<br>------------- ------ ------ ---- ---- ------- ----- -- ----<br>-------- ------- -- paramount. --- - --- ----- ----- ----<br>---- --- --- ----- --- ---- ---- ------- ----- ---- -------<br>--- --- -- ----- -- --- ---- -- --- ---- -- ------ ------<br>--- ----- -- ----,80324.77999990806,80323.88999999966,80018.521,80021.3099999819,80034.854,80334.969,,21,paramount.
screen,html.Screen,1_1_0_1_22,2021-04-19T00:45:54.922Z,,,,,,,,,,,,,,,,53,,,,,,,,,,,,,,290.1409999062744,,response,,,,99,,,,,,,Space,keypress(Space),,,,,,,,---- -- ----- -- ------ - ------- --- ----------<br>------------- ------ ------ ---- ---- ------- ----- -- ----<br>-------- ------- -- ---------- But - --- ----- ----- ----<br>---- --- --- ----- --- ---- ---- ------- ----- ---- -------<br>--- --- -- ----- -- --- ---- -- --- ---- -- ------ ------<br>--- ----- -- ----,80626.00499996915,80625.10999990627,80318.156,80325.0049999915,80334.969,80635.145,,22,But
screen,html.Screen,1_1_0_1_23,2021-04-19T00:45:56.898Z,,,,,,,,,,,,,,,,53,,,,,,,,,,,,,,1965.8249999121908,,response,,,,99,,,,,,,Space,keypress(Space),,,,,,,,---- -- ----- -- ------ - ------- --- ----------<br>------------- ------ ------ ---- ---- ------- ----- -- ----<br>-------- ------- -- ---------- --- a --- ----- ----- ----<br>---- --- --- ----- --- ---- ---- ------- ----- ---- -------<br>--- --- -- ----- -- --- ---- -- --- ---- -- ------ ------<br>--- ----- -- ----,82601.87000001315,82600.9699999122,80618.652,80626.22500001453,80635.145,82619.218,,23,a
screen,html.Screen,1_1_0_1_24,2021-04-19T00:45:57.194Z,,,,,,,,,,,,,,,,53,,,,,,,,,,,,,,277.8019999166718,,response,,,,99,,,,,,,Space,keypress(Space),,,,,,,,---- -- ----- -- ------ - ------- --- ----------<br>------------- ------ ------ ---- ---- ------- ----- -- ----<br>-------- ------- -- ---------- --- - new ----- ----- ----<br>---- --- --- ----- --- ---- ---- ------- ----- ---- -------<br>--- --- -- ----- -- --- ---- -- --- ---- -- ------ ------<br>--- ----- -- ----,82897.8899999056,82897.01999991667,82602.005,82602.08499990404,82619.218,82902.646,,24,new
screen,html.Screen,1_1_0_1_25,2021-04-19T00:45:57.459Z,,,,,,,,,,,,,,,,53,,,,,,,,,,,,,,259.0940000104747,,response,,,,99,,,,,,,Space,keypress(Space),,,,,,,,---- -- ----- -- ------ - ------- --- ----------<br>------------- ------ ------ ---- ---- ------- ----- -- ----<br>-------- ------- -- ---------- --- - --- study ----- ----<br>---- --- --- ----- --- ---- ---- ------- ----- ---- -------<br>--- --- -- ----- -- --- ---- -- --- ---- -- ------ ------<br>--- ----- -- ----,83162.61999995913,83161.74000001047,82885.916,82898.10999995098,82902.646,83169.424,,25,study
screen,html.Screen,1_1_0_1_26,2021-04-19T00:45:57.684Z,,,,,,,,,,,,,,,,53,,,,,,,,,,,,,,217.46099992713425,,response,,,,99,,,,,,,Space,keypress(Space),,,,,,,,---- -- ----- -- ------ - ------- --- ----------<br>------------- ------ ------ ---- ---- ------- ----- -- ----<br>-------- ------- -- ---------- --- - --- ----- finds ----<br>---- --- --- ----- --- ---- ---- ------- ----- ---- -------<br>--- --- -- ----- -- --- ---- -- --- ---- -- ------ ------<br>--- ----- -- ----,83387.6450000098,83386.88499992713,83152.643,83162.84000000451,83169.424,83402.9,,26,finds
screen,html.Screen,1_1_0_1_27,2021-04-19T00:45:57.932Z,,,,,,,,,,,,,,,,53,,,,,,,,,,,,,,231.73999994565384,,response,,,,99,,,,,,,Space,keypress(Space),,,,,,,,---- -- ----- -- ------ - ------- --- ----------<br>------------- ------ ------ ---- ---- ------- ----- -- ----<br>-------- ------- -- ---------- --- - --- ----- ----- that<br>---- --- --- ----- --- ---- ---- ------- ----- ---- -------<br>--- --- -- ----- -- --- ---- -- --- ---- -- ------ ------<br>--- ----- -- ----,83635.52999997046,83634.63999994565,83386.46,83387.84999994095,83402.9,83669.647,,27,that
screen,html.Screen,1_1_0_1_28,2021-04-19T00:45:58.206Z,,,,,,,,,,,,,,,,53,,,,,,,,,,,,,,238.9329999302281,,response,,,,99,,,,,,,Space,keypress(Space),,,,,,,,---- -- ----- -- ------ - ------- --- ----------<br>------------- ------ ------ ---- ---- ------- ----- -- ----<br>-------- ------- -- ---------- --- - --- ----- ----- ----<br>it's --- --- ----- --- ---- ---- ------- ----- ---- -------<br>--- --- -- ----- -- --- ---- -- --- ---- -- ------ ------<br>--- ----- -- ----,83909.54999998212,83908.57999993023,83652.911,83635.75000001583,83669.647,83919.768,,28,it's
screen,html.Screen,1_1_0_1_29,2021-04-19T00:45:58.449Z,,,,,,,,,,,,,,,,53,,,,,,,,,,,,,,230.79199998003605,,response,,,,99,,,,,,,Space,keypress(Space),,,,,,,,---- -- ----- -- ------ - ------- --- ----------<br>------------- ------ ------ ---- ---- ------- ----- -- ----<br>-------- ------- -- ---------- --- - --- ----- ----- ----<br>---- not --- ----- --- ---- ---- ------- ----- ---- -------<br>--- --- -- ----- -- --- ---- -- --- ---- -- ------ ------<br>--- ----- -- ----,84152.99500001129,84150.55999998003,83903.291,83909.74499995355,83919.768,84169.974,,29,not
screen,html.Screen,1_1_0_1_30,2021-04-19T00:45:58.647Z,,,,,,,,,,,,,,,,53,,,,,,,,,,,,,,180.42599999571394,,response,,,,99,,,,,,,Space,keypress(Space),,,,,,,,---- -- ----- -- ------ - ------- --- ----------<br>------------- ------ ------ ---- ---- ------- ----- -- ----<br>-------- ------- -- ---------- --- - --- ----- ----- ----<br>---- --- how ----- --- ---- ---- ------- ----- ---- -------<br>--- --- -- ----- -- --- ---- -- --- ---- -- ------ ------<br>--- ----- -- ----,84351.27499990631,84350.39999999572,84153.412,84153.19999994244,84169.974,84353.192,,30,how
screen,html.Screen,1_1_0_1_31,2021-04-19T00:45:58.817Z,,,,,,,,,,,,,,,,53,,,,,,,,,,,,,,166.73299991320528,,response,,,,99,,,,,,,Space,keypress(Space),,,,,,,,---- -- ----- -- ------ - ------- --- ----------<br>------------- ------ ------ ---- ---- ------- ----- -- ----<br>-------- ------- -- ---------- --- - --- ----- ----- ----<br>---- --- --- close --- ---- ---- ------- ----- ---- -------<br>--- --- -- ----- -- --- ---- -- --- ---- -- ------ ------<br>--- ----- -- ----,84520.80499997828,84519.9249999132,84336.842,84351.48999991361,84353.192,84536.684,,31,close
screen,html.Screen,1_1_0_1_32,2021-04-19T00:45:59.003Z,,,,,,,,,,,,,,,,53,,,,,,,,,,,,,,169.30100000779203,,response,,,,99,,,,,,,Space,keypress(Space),,,,,,,,---- -- ----- -- ------ - ------- --- ----------<br>------------- ------ ------ ---- ---- ------- ----- -- ----<br>-------- ------- -- ---------- --- - --- ----- ----- ----<br>---- --- --- ----- you ---- ---- ------- ----- ---- -------<br>--- --- -- ----- -- --- ---- -- --- ---- -- ------ ------<br>--- ----- -- ----,84706.82999992277,84705.98500000779,84520.25,84521.02499990724,84536.684,84720.282,,32,you
screen,html.Screen,1_1_0_1_33,2021-04-19T00:45:59.313Z,,,,,,,,,,,,,,,,53,,,,,,,,,,,,,,295.8579999633366,,response,,,,99,,,,,,,Space,keypress(Space),,,,,,,,---- -- ----- -- ------ - ------- --- ----------<br>------------- ------ ------ ---- ---- ------- ----- -- ----<br>-------- ------- -- ---------- --- - --- ----- ----- ----<br>---- --- --- ----- --- feel ---- ------- ----- ---- -------<br>--- --- -- ----- -- --- ---- -- --- ---- -- ------ ------<br>--- ----- -- ----,85016.99499995448,85016.13999996334,84703.631,84707.04499993008,84720.282,85020.132,,33,feel
screen,html.Screen,1_1_0_1_34,2021-04-19T00:45:59.511Z,,,,,,,,,,,,,,,,53,,,,,,,,,,,,,,193.84299996237678,,response,,,,99,,,,,,,Space,keypress(Space),,,,,,,,---- -- ----- -- ------ - ------- --- ----------<br>------------- ------ ------ ---- ---- ------- ----- -- ----<br>-------- ------- -- ---------- --- - --- ----- ----- ----<br>---- --- --- ----- --- ---- that ------- ----- ---- -------<br>--- --- -- ----- -- --- ---- -- --- ---- -- ------ ------<br>--- ----- -- ----,85214.81999999378,85213.97499996237,85003.533,85017.17999996617,85020.132,85220.205,,34,that
screen,html.Screen,1_1_0_1_35,2021-04-19T00:45:59.894Z,,,,,,,,,,,,,,,,53,,,,,,,,,,,,,,376.5799999433366,,response,,,,99,,,,,,,Space,keypress(Space),,,,,,,,---- -- ----- -- ------ - ------- --- ----------<br>------------- ------ ------ ---- ---- ------- ----- -- ----<br>-------- ------- -- ---------- --- - --- ----- ----- ----<br>---- --- --- ----- --- ---- ---- matters ----- ---- -------<br>--- --- -- ----- -- --- ---- -- --- ---- -- ------ ------<br>--- ----- -- ----,85597.64499997254,85596.78499994334,85203.836,85215.00500000548,85220.205,85603.648,,35,matters
screen,html.Screen,1_1_0_1_36,2021-04-19T00:46:00.109Z,,,,,,,,,,,,,,,,53,,,,,,,,,,,,,,208.4969999744062,,response,,,,99,,,,,,,Space,keypress(Space),,,,,,,,"---- -- ----- -- ------ - ------- --- ----------<br>------------- ------ ------ ---- ---- ------- ----- -- ----<br>-------- ------- -- ---------- --- - --- ----- ----- ----<br>---- --- --- ----- --- ---- ---- ------- most, ---- -------<br>--- --- -- ----- -- --- ---- -- --- ---- -- ------ ------<br>--- ----- -- ----",85812.97999992967,85812.1449999744,85587.233,85597.85999997985,85603.648,85820.496,,36,"most,"
screen,html.Screen,1_1_0_1_37,2021-04-19T00:46:00.308Z,,,,,,,,,,,,,,,,53,,,,,,,,,,,,,,190.20899990601174,,response,,,,99,,,,,,,Space,keypress(Space),,,,,,,,---- -- ----- -- ------ - ------- --- ----------<br>------------- ------ ------ ---- ---- ------- ----- -- ----<br>-------- ------- -- ---------- --- - --- ----- ----- ----<br>---- --- --- ----- --- ---- ---- ------- ----- it's -------<br>--- --- -- ----- -- --- ---- -- --- ---- -- ------ ------<br>--- ----- -- ----,86011.54999993742,86010.70499990601,85804.037,85813.19000001531,85820.496,86020.469,,37,it's
screen,html.Screen,1_1_0_1_38,2021-04-19T00:46:00.731Z,,,,,,,,,,,,,,,,53,,,,,,,,,,,,,,413.6109999190521,,response,,,,99,,,,,,,Space,keypress(Space),,,,,,,,---- -- ----- -- ------ - ------- --- ----------<br>------------- ------ ------ ---- ---- ------- ----- -- ----<br>-------- ------- -- ---------- --- - --- ----- ----- ----<br>---- --- --- ----- --- ---- ---- ------- ----- ---- whether<br>--- --- -- ----- -- --- ---- -- --- ---- -- ------ ------<br>--- ----- -- ----,86434.99499990139,86434.07999991905,86003.751,86011.73499994911,86020.469,86437.326,,38,whether
screen,html.Screen,1_1_0_1_39,2021-04-19T00:46:00.936Z,,,,,,,,,,,,,,,,53,,,,,,,,,,,,,,201.61399997526314,,response,,,,99,,,,,,,Space,keypress(Space),,,,,,,,---- -- ----- -- ------ - ------- --- ----------<br>------------- ------ ------ ---- ---- ------- ----- -- ----<br>-------- ------- -- ---------- --- - --- ----- ----- ----<br>---- --- --- ----- --- ---- ---- ------- ----- ---- -------<br>you --- -- ----- -- --- ---- -- --- ---- -- ------ ------<br>--- ----- -- ----,86639.86999995541,86638.93999997526,86420.856,86435.17999991309,86437.326,86654.091,,39,you
screen,html.Screen,1_1_0_1_40,2021-04-19T00:46:01.139Z,,,,,,,,,,,,,,,,53,,,,,,,,,,,,,,188.05899992400373,,response,,,,99,,,,,,,Space,keypress(Space),,,,,,,,---- -- ----- -- ------ - ------- --- ----------<br>------------- ------ ------ ---- ---- ------- ----- -- ----<br>-------- ------- -- ---------- --- - --- ----- ----- ----<br>---- --- --- ----- --- ---- ---- ------- ----- ---- -------<br>--- are -- ----- -- --- ---- -- --- ---- -- ------ ------<br>--- ----- -- ----,86843.1349999737,86842.149999924,86637.711,86640.06000000518,86654.091,86854.176,,40,are
screen,html.Screen,1_1_0_1_41,2021-04-19T00:46:01.333Z,,,,,,,,,,,,,,,,53,,,,,,,,,,,,,,181.86399991900544,,response,,,,99,,,,,,,Space,keypress(Space),,,,,,,,---- -- ----- -- ------ - ------- --- ----------<br>------------- ------ ------ ---- ---- ------- ----- -- ----<br>-------- ------- -- ---------- --- - --- ----- ----- ----<br>---- --- --- ----- --- ---- ---- ------- ----- ---- -------<br>--- --- as ----- -- --- ---- -- --- ---- -- ------ ------<br>--- ----- -- ----,87036.88999998849,87036.03999991901,86837.778,86843.34499994293,86854.176,87054.229,,41,as
screen,html.Screen,1_1_0_1_42,2021-04-19T00:46:01.517Z,,,,,,,,,,,,,,,,53,,,,,,,,,,,,,,165.25600000871054,,response,,,,99,,,,,,,Space,keypress(Space),,,,,,,,---- -- ----- -- ------ - ------- --- ----------<br>------------- ------ ------ ---- ---- ------- ----- -- ----<br>-------- ------- -- ---------- --- - --- ----- ----- ----<br>---- --- --- ----- --- ---- ---- ------- ----- ---- -------<br>--- --- -- close -- --- ---- -- --- ---- -- ------ ------<br>--- ----- -- ----,87220.35499999765,87219.48500000872,87021.189,87037.11499995552,87054.229,87237.736,,42,close
screen,html.Screen,1_1_0_1_43,2021-04-19T00:46:01.707Z,,,,,,,,,,,,,,,,53,,,,,,,,,,,,,,171.8989999308542,,response,,,,99,,,,,,,Space,keypress(Space),,,,,,,,---- -- ----- -- ------ - ------- --- ----------<br>------------- ------ ------ ---- ---- ------- ----- -- ----<br>-------- ------- -- ---------- --- - --- ----- ----- ----<br>---- --- --- ----- --- ---- ---- ------- ----- ---- -------<br>--- --- -- ----- as --- ---- -- --- ---- -- ------ ------<br>--- ----- -- ----,87410.53999995347,87409.63499993086,87204.611,87220.55999992881,87237.736,87421.08,,43,as
screen,html.Screen,1_1_0_1_44,2021-04-19T00:46:01.884Z,,,,,,,,,,,,,,,,53,,,,,,,,,,,,,,165.6149999472109,,response,,,,99,,,,,,,Space,keypress(Space),,,,,,,,---- -- ----- -- ------ - ------- --- ----------<br>------------- ------ ------ ---- ---- ------- ----- -- ----<br>-------- ------- -- ---------- --- - --- ----- ----- ----<br>---- --- --- ----- --- ---- ---- ------- ----- ---- -------<br>--- --- -- ----- -- you ---- -- --- ---- -- ------ ------<br>--- ----- -- ----,87587.56999997422,87586.69499994721,87404.683,87410.74500000104,87421.08,87604.451,,44,you
screen,html.Screen,1_1_0_1_45,2021-04-19T00:46:02.040Z,,,,,,,,,,,,,,,,53,,,,,,,,,,,,,,138.8039999793982,,response,,,,99,,,,,,,Space,keypress(Space),,,,,,,,---- -- ----- -- ------ - ------- --- ----------<br>------------- ------ ------ ---- ---- ------- ----- -- ----<br>-------- ------- -- ---------- --- - --- ----- ----- ----<br>---- --- --- ----- --- ---- ---- ------- ----- ---- -------<br>--- --- -- ----- -- --- want -- --- ---- -- ------ ------<br>--- ----- -- ----,87744.1150000086,87743.2549999794,87588.062,87587.77499990538,87604.451,87754.515,,45,want
screen,html.Screen,1_1_0_1_46,2021-04-19T00:46:02.253Z,,,,,,,,,,,,,,,,53,,,,,,,,,,,,,,201.88499990817218,,response,,,,99,,,,,,,Space,keypress(Space),,,,,,,,---- -- ----- -- ------ - ------- --- ----------<br>------------- ------ ------ ---- ---- ------- ----- -- ----<br>-------- ------- -- ---------- --- - --- ----- ----- ----<br>---- --- --- ----- --- ---- ---- ------- ----- ---- -------<br>--- --- -- ----- -- --- ---- to --- ---- -- ------ ------<br>--- ----- -- ----,87957.25999993738,87956.39999990817,87738.14,87744.31999993976,87754.515,87971.366,,46,to
screen,html.Screen,1_1_0_1_47,2021-04-19T00:46:02.464Z,,,,,,,,,,,,,,,,53,,,,,,,,,,,,,,195.69400000704627,,response,,,,99,,,,,,,Space,keypress(Space),,,,,,,,"---- -- ----- -- ------ - ------- --- ----------<br>------------- ------ ------ ---- ---- ------- ----- -- ----<br>-------- ------- -- ---------- --- - --- ----- ----- ----<br>---- --- --- ----- --- ---- ---- ------- ----- ---- -------<br>--- --- -- ----- -- --- ---- -- be, ---- -- ------ ------<br>--- ----- -- ----",88167.95999999158,88167.06000000704,87954.853,87957.46499998495,87971.366,88171.312,,47,"be,"
screen,html.Screen,1_1_0_1_48,2021-04-19T00:46:02.665Z,,,,,,,,,,,,,,,,53,,,,,,,,,,,,,,196.94800001746626,,response,,,,99,,,,,,,Space,keypress(Space),,,,,,,,---- -- ----- -- ------ - ------- --- ----------<br>------------- ------ ------ ---- ---- ------- ----- -- ----<br>-------- ------- -- ---------- --- - --- ----- ----- ----<br>---- --- --- ----- --- ---- ---- ------- ----- ---- -------<br>--- --- -- ----- -- --- ---- -- --- even -- ------ ------<br>--- ----- -- ----,88369.10499993246,88368.26000001747,88154.569,88168.16499992274,88171.312,88371.37,,48,even
screen,html.Screen,1_1_0_1_49,2021-04-19T00:46:02.866Z,,,,,,,,,,,,,,,,53,,,,,,,,,,,,,,197.37499993864913,,response,,,,99,,,,,,,Space,keypress(Space),,,,,,,,---- -- ----- -- ------ - ------- --- ----------<br>------------- ------ ------ ---- ---- ------- ----- -- ----<br>-------- ------- -- ---------- --- - --- ----- ----- ----<br>---- --- --- ----- --- ---- ---- ------- ----- ---- -------<br>--- --- -- ----- -- --- ---- -- --- ---- if ------ ------<br>--- ----- -- ----,88569.59500000812,88568.74499993864,88354.649,88369.28999994416,88371.37,88571.442,,49,if
screen,html.Screen,1_1_0_1_50,2021-04-19T00:46:03.030Z,,,,,,,,,,,,,,,,53,,,,,,,,,,,,,,161.04299992769666,,response,,,,99,,,,,,,Space,keypress(Space),,,,,,,,---- -- ----- -- ------ - ------- --- ----------<br>------------- ------ ------ ---- ---- ------- ----- -- ----<br>-------- ------- -- ---------- --- - --- ----- ----- ----<br>---- --- --- ----- --- ---- ---- ------- ----- ---- -------<br>--- --- -- ----- -- --- ---- -- --- ---- -- that's ------<br>--- ----- -- ----,88733.35499991663,88732.48499992769,88554.722,88569.79999993928,88571.442,88738.205,,50,that's
screen,html.Screen,1_1_0_1_51,2021-04-19T00:46:03.223Z,,,,,,,,,,,,,,,,53,,,,,,,,,,,,,,187.4599999879283,,response,,,,99,,,,,,,Space,keypress(Space),,,,,,,,---- -- ----- -- ------ - ------- --- ----------<br>------------- ------ ------ ---- ---- ------- ----- -- ----<br>-------- ------- -- ---------- --- - --- ----- ----- ----<br>---- --- --- ----- --- ---- ---- ------- ----- ---- -------<br>--- --- -- ----- -- --- ---- -- --- ---- -- ------ really<br>--- ----- -- ----,88926.52500001714,88925.66499998793,88721.856,88733.5599999642,88738.205,88938.315,,51,really
screen,html.Screen,1_1_0_1_52,2021-04-19T00:46:03.651Z,,,,,,,,,,,,,,,,53,,,,,,,,,,,,,,415.6049999067909,,response,,,,99,,,,,,,Space,keypress(Space),,,,,,,,---- -- ----- -- ------ - ------- --- ----------<br>------------- ------ ------ ---- ---- ------- ----- -- ----<br>-------- ------- -- ---------- --- - --- ----- ----- ----<br>---- --- --- ----- --- ---- ---- ------- ----- ---- -------<br>--- --- -- ----- -- --- ---- -- --- ---- -- ------ ------<br>not ----- -- ----,89354.76000001654,89353.9199999068,88921.918,88926.73499998637,88938.315,89371.795,,52,not
screen,html.Screen,1_1_0_1_53,2021-04-19T00:46:03.843Z,,,,,,,,,,,,,,,,53,,,,,,,,,,,,,,174.2649999642017,,response,,,,99,,,,,,,Space,keypress(Space),,,,,,,,---- -- ----- -- ------ - ------- --- ----------<br>------------- ------ ------ ---- ---- ------- ----- -- ----<br>-------- ------- -- ---------- --- - --- ----- ----- ----<br>---- --- --- ----- --- ---- ---- ------- ----- ---- -------<br>--- --- -- ----- -- --- ---- -- --- ---- -- ------ ------<br>--- close -- ----,89546.88499995973,89546.0599999642,89355.307,89354.9649999477,89371.795,89555.178,,53,close
screen,html.Screen,1_1_0_1_54,2021-04-19T00:46:04.041Z,,,,,,,,,,,,,,,,53,,,,,,,,,,,,,,189.03199991707515,,response,,,,99,,,,,,,Space,keypress(Space),,,,,,,,---- -- ----- -- ------ - ------- --- ----------<br>------------- ------ ------ ---- ---- ------- ----- -- ----<br>-------- ------- -- ---------- --- - --- ----- ----- ----<br>---- --- --- ----- --- ---- ---- ------- ----- ---- -------<br>--- --- -- ----- -- --- ---- -- --- ---- -- ------ ------<br>--- ----- at ----,89745.08999998216,89744.20999991708,89538.805,89547.09499992896,89555.178,89755.277,,54,at
screen,html.Screen,1_1_0_1_55,2021-04-19T00:46:04.571Z,,,,,,,,,,,,,,,,53,,,,,,,,,,,,,,518.7430000116583,,response,,,,99,,,,,,,Space,keypress(Space),,,,,,,,---- -- ----- -- ------ - ------- --- ----------<br>------------- ------ ------ ---- ---- ------- ----- -- ----<br>-------- ------- -- ---------- --- - --- ----- ----- ----<br>---- --- --- ----- --- ---- ---- ------- ----- ---- -------<br>--- --- -- ----- -- --- ---- -- --- ---- -- ------ ------<br>--- ----- -- all.,90274.86000000499,90274.02000001166,89738.5,89745.26499991771,89755.277,90288.797,,55,all.
Item 99,flow.Loop,1_1_0_1,2021-04-19T00:46:04.571Z,,,,,,,,,,,,,,,,,,,,,,,,,,,,,,17658.557000011657,,completion,,,,,E,,,,,,,,,,,silence,,,,,90275.23499995004,90274.02000001166,72598.72,72599.74999993574,72615.463,90288.797,,,
Question 1,html.Screen,1_1_0_2,2021-04-19T00:46:08.716Z,,,,,,,,,,,,,,,,,,,,,,,,,,,true,FALSE,,4129.043000009158,,response,,,,99,E,,,,,,FALSE,click #choice-2,,,,silence,,,,,94419.38999993727,94417.84000000916,90272.273,90275.39500000421,90288.797,94423.789,,,
Question 2,html.Screen,1_1_0_3,2021-04-19T00:46:10.958Z,,,,,,,,,,,,,,,,,,,,,,,,,,,false,TRUE,,2236.7209999578627,,response,,,,99,E,,,,,,FALSE,click #choice-2,,,,silence,,,,,96661.65499994531,96660.50999995787,94406.97,94419.57499994896,94423.789,96674.717,,,
Item 99,flow.Sequence,1_1_0,2021-04-19T00:46:10.958Z,,,,,,,,,,,,,,,,,,,,,,,,,,,,,,34048.88599995786,,completion,,,,,,,,,,,,,,,,,,,,,96661.89999994822,96660.50999995787,62594.857,62610.86000001524,62611.624,96674.717,,,
Holding screen,html.Screen,1_1_1_0,2021-04-19T00:46:20.959Z,,,,,,,,,,,,,,,,,,,,,,,,,,,,,,10003.68299999999,,timeout,,,,,,,,,,,,,,,,,,,,,106663.11999992467,106662.072,96657.863,96662.06000000238,96674.717,106678.4,,,
screen,html.Screen,1_1_1_1_0,2021-04-19T00:46:23.169Z,,,,,,,,,,,,,,,,54,,,,,,,,,,,,,,2193.674999962939,,response,,,,100,,,,,,,Space,keypress(Space),,,,,,,,At --- ---- --- ------ ----- ------- ---- -- --- ------- --<br>------- ---------- ------ -- ----- -- ----- -- ---- ------<br>--- ----- --- --- ------ -------- ----- --- ------ ----- --<br>----- ----- ---------- --- --- ------ ------ ---- -- ------<br>------- --- ------ ----- --- ---- ------- -- ---- --- --<br>------- ------,108872.97499994747,108872.07499996293,106662.072,106663.39499992318,106678.4,108879.241,,0,At
screen,html.Screen,1_1_1_1_1,2021-04-19T00:46:23.512Z,,,,,,,,,,,,,,,,54,,,,,,,,,,,,,,335.45399997329514,,response,,,,100,,,,,,,Space,keypress(Space),,,,,,,,-- the ---- --- ------ ----- ------- ---- -- --- ------- --<br>------- ---------- ------ -- ----- -- ----- -- ---- ------<br>--- ----- --- --- ------ -------- ----- --- ------ ----- --<br>----- ----- ---------- --- --- ------ ------ ---- -- ------<br>------- --- ------ ----- --- ---- ------- -- ---- --- --<br>------- ------,109215.65499994904,109214.69499997329,108862.033,108873.1549999211,108879.241,109229.377,,1,the
screen,html.Screen,1_1_1_1_2,2021-04-19T00:46:23.805Z,,,,,,,,,,,,,,,,54,,,,,,,,,,,,,,278.5629999231169,,response,,,,100,,,,,,,Space,keypress(Space),,,,,,,,-- --- time --- ------ ----- ------- ---- -- --- ------- --<br>------- ---------- ------ -- ----- -- ----- -- ---- ------<br>--- ----- --- --- ------ -------- ----- --- ------ ----- --<br>----- ----- ---------- --- --- ------ ------ ---- -- ------<br>------- --- ------ ----- --- ---- ------- -- ---- --- --<br>------- ------,109508.85999994352,109507.93999992311,109212.932,109215.830000001,109229.377,109512.78,,2,time
screen,html.Screen,1_1_1_1_3,2021-04-19T00:46:24.084Z,,,,,,,,,,,,,,,,54,,,,,,,,,,,,,,273.76999996069935,,response,,,,100,,,,,,,Space,keypress(Space),,,,,,,,-- --- ---- the ------ ----- ------- ---- -- --- ------- --<br>------- ---------- ------ -- ----- -- ----- -- ---- ------<br>--- ----- --- --- ------ -------- ----- --- ------ ----- --<br>----- ----- ---------- --- --- ------ ------ ---- -- ------<br>------- --- ------ ----- --- ---- ------- -- ---- --- --<br>------- ------,109787.36999991816,109786.5499999607,109496.384,109509.02999995742,109512.78,109796.214,,3,the
screen,html.Screen,1_1_1_1_4,2021-04-19T00:46:24.362Z,,,,,,,,,,,,,,,,54,,,,,,,,,,,,,,268.9109999646025,,response,,,,100,,,,,,,Space,keypress(Space),,,,,,,,-- --- ---- --- French ----- ------- ---- -- --- ------- --<br>------- ---------- ------ -- ----- -- ----- -- ---- ------<br>--- ----- --- --- ------ -------- ----- --- ------ ----- --<br>----- ----- ---------- --- --- ------ ------ ---- -- ------<br>------- --- ------ ----- --- ---- ------- -- ---- --- --<br>------- ------,110065.97999995574,110065.12499996461,109779.85,109787.56999992765,109796.214,110079.695,,4,French
screen,html.Screen,1_1_1_1_5,2021-04-19T00:46:24.664Z,,,,,,,,,,,,,,,,54,,,,,,,,,,,,,,287.5599999318947,,response,,,,100,,,,,,,Space,keypress(Space),,,,,,,,-- --- ---- --- ------ crown ------- ---- -- --- ------- --<br>------- ---------- ------ -- ----- -- ----- -- ---- ------<br>--- ----- --- --- ------ -------- ----- --- ------ ----- --<br>----- ----- ---------- --- --- ------ ------ ---- -- ------<br>------- --- ------ ----- --- ---- ------- -- ---- --- --<br>------- ------,110368.07500000577,110367.2549999319,110063.256,110066.17499992717,110079.695,110379.812,,5,crown
screen,html.Screen,1_1_1_1_6,2021-04-19T00:46:24.945Z,,,,,,,,,,,,,,,,54,,,,,,,,,,,,,,268.6229999809584,,response,,,,100,,,,,,,Space,keypress(Space),,,,,,,,-- --- ---- --- ------ ----- secured ---- -- --- ------- --<br>------- ---------- ------ -- ----- -- ----- -- ---- ------<br>--- ----- --- --- ------ -------- ----- --- ------ ----- --<br>----- ----- ---------- --- --- ------ ------ ---- -- ------<br>------- --- ------ ----- --- ---- ------- -- ---- --- --<br>------- ------,110649.28499993403,110648.43499998096,110363.23,110368.2549999794,110379.812,110663.271,,6,secured
screen,html.Screen,1_1_1_1_7,2021-04-19T00:46:25.204Z,,,,,,,,,,,,,,,,54,,,,,,,,,,,,,,243.38399994066276,,response,,,,100,,,,,,,Space,keypress(Space),,,,,,,,-- --- ---- --- ------ ----- ------- much -- --- ------- --<br>------- ---------- ------ -- ----- -- ----- -- ---- ------<br>--- ----- --- --- ------ -------- ----- --- ------ ----- --<br>----- ----- ---------- --- --- ------ ------ ---- -- ------<br>------- --- ------ ----- --- ---- ------- -- ---- --- --<br>------- ------,110907.51499996986,110906.65499994066,110646.819,110649.46999994572,110663.271,110913.347,,7,much
screen,html.Screen,1_1_1_1_8,2021-04-19T00:46:25.474Z,,,,,,,,,,,,,,,,54,,,,,,,,,,,,,,263.2779999636841,,response,,,,100,,,,,,,Space,keypress(Space),,,,,,,,-- --- ---- --- ------ ----- ------- ---- of --- ------- --<br>------- ---------- ------ -- ----- -- ----- -- ---- ------<br>--- ----- --- --- ------ -------- ----- --- ------ ----- --<br>----- ----- ---------- --- --- ------ ------ ---- -- ------<br>------- --- ------ ----- --- ---- ------- -- ---- --- --<br>------- ------,111177.51499998849,111176.62499996368,110896.931,110907.7399999369,110913.347,111180.081,,8,of
screen,html.Screen,1_1_1_1_9,2021-04-19T00:46:25.751Z,,,,,,,,,,,,,,,,54,,,,,,,,,,,,,,273.47400001459755,,response,,,,100,,,,,,,Space,keypress(Space),,,,,,,,-- --- ---- --- ------ ----- ------- ---- -- its ------- --<br>------- ---------- ------ -- ----- -- ----- -- ---- ------<br>--- ----- --- --- ------ -------- ----- --- ------ ----- --<br>----- ----- ---------- --- --- ------ ------ ---- -- ------<br>------- --- ------ ----- --- ---- ------- -- ---- --- --<br>------- ------,111454.38999996986,111453.5550000146,111163.696,111177.71999991965,111180.081,111463.817,,9,its
screen,html.Screen,1_1_1_1_10,2021-04-19T00:46:26.007Z,,,,,,,,,,,,,,,,54,,,,,,,,,,,,,,246.56799998394854,,response,,,,100,,,,,,,Space,keypress(Space),,,,,,,,-- --- ---- --- ------ ----- ------- ---- -- --- revenue --<br>------- ---------- ------ -- ----- -- ----- -- ---- ------<br>--- ----- --- --- ------ -------- ----- --- ------ ----- --<br>----- ----- ---------- --- --- ------ ------ ---- -- ------<br>------- --- ------ ----- --- ---- ------- -- ---- --- --<br>------- ------,111711.2199999392,111710.38499998394,111446.716,111454.59500001743,111463.817,111713.67,,10,revenue
screen,html.Screen,1_1_1_1_11,2021-04-19T00:46:26.265Z,,,,,,,,,,,,,,,,54,,,,,,,,,,,,,,254.33499991513963,,response,,,,100,,,,,,,Space,keypress(Space),,,,,,,,-- --- ---- --- ------ ----- ------- ---- -- --- ------- by<br>------- ---------- ------ -- ----- -- ----- -- ---- ------<br>--- ----- --- --- ------ -------- ----- --- ------ ----- --<br>----- ----- ---------- --- --- ------ ------ ---- -- ------<br>------- --- ------ ----- --- ---- ------- -- ---- --- --<br>------- ------,111968.84499990847,111968.00499991514,111697.252,111711.42499998678,111713.67,111980.687,,11,by
screen,html.Screen,1_1_1_1_12,2021-04-19T00:46:26.554Z,,,,,,,,,,,,,,,,54,,,,,,,,,,,,,,275.9529999195656,,response,,,,100,,,,,,,Space,keypress(Space),,,,,,,,-- --- ---- --- ------ ----- ------- ---- -- --- ------- --<br>issuing ---------- ------ -- ----- -- ----- -- ---- ------<br>--- ----- --- --- ------ -------- ----- --- ------ ----- --<br>----- ----- ---------- --- --- ------ ------ ---- -- ------<br>------- --- ------ ----- --- ---- ------- -- ---- --- --<br>------- ------,112257.55499990191,112256.63999991957,111963.627,111969.05499999411,111980.687,112263.847,,12,issuing
screen,html.Screen,1_1_1_1_13,2021-04-19T00:46:26.807Z,,,,,,,,,,,,,,,,54,,,,,,,,,,,,,,245.7229999947158,,response,,,,100,,,,,,,Space,keypress(Space),,,,,,,,-- --- ---- --- ------ ----- ------- ---- -- --- ------- --<br>------- government ------ -- ----- -- ----- -- ---- ------<br>--- ----- --- --- ------ -------- ----- --- ------ ----- --<br>----- ----- ---------- --- --- ------ ------ ---- -- ------<br>------- --- ------ ----- --- ---- ------- -- ---- --- --<br>------- ------,112510.45499998145,112509.56999999471,112247.052,112257.75999994949,112263.847,112513.939,,13,government
screen,html.Screen,1_1_1_1_14,2021-04-19T00:46:27.037Z,,,,,,,,,,,,,,,,54,,,,,,,,,,,,,,225.77599991603347,,response,,,,100,,,,,,,Space,keypress(Space),,,,,,,,-- --- ---- --- ------ ----- ------- ---- -- --- ------- --<br>------- ---------- bonds. -- ----- -- ----- -- ---- ------<br>--- ----- --- --- ------ -------- ----- --- ------ ----- --<br>----- ----- ---------- --- --- ------ ------ ---- -- ------<br>------- --- ------ ----- --- ---- ------- -- ---- --- --<br>------- ------,112740.44999992475,112739.71499991603,112497.543,112510.65499999095,112513.939,112747.362,,14,bonds.
screen,html.Screen,1_1_1_1_15,2021-04-19T00:46:27.275Z,,,,,,,,,,,,,,,,54,,,,,,,,,,,,,,230.4329999552283,,response,,,,100,,,,,,,Space,keypress(Space),,,,,,,,-- --- ---- --- ------ ----- ------- ---- -- --- ------- --<br>------- ---------- ------ In ----- -- ----- -- ---- ------<br>--- ----- --- --- ------ -------- ----- --- ------ ----- --<br>----- ----- ---------- --- --- ------ ------ ---- -- ------<br>------- --- ------ ----- --- ---- ------- -- ---- --- --<br>------- ------,112978.63499994855,112977.79499995522,112730.986,112740.63499993645,112747.362,112980.763,,15,In
screen,html.Screen,1_1_1_1_16,2021-04-19T00:46:27.492Z,,,,,,,,,,,,,,,,54,,,,,,,,,,,,,,214.27699990410474,,response,,,,100,,,,,,,Space,keypress(Space),,,,,,,,"-- --- ---- --- ------ ----- ------- ---- -- --- ------- --<br>------- ---------- ------ -- 1727, -- ----- -- ---- ------<br>--- ----- --- --- ------ -------- ----- --- ------ ----- --<br>----- ----- ---------- --- --- ------ ------ ---- -- ------<br>------- --- ------ ----- --- ---- ------- -- ---- --- --<br>------- ------",113195.92500000726,113195.03999990411,112964.398,112978.83499995805,112980.763,113228.078,,16,"1727,"
screen,html.Screen,1_1_1_1_17,2021-04-19T00:46:27.731Z,,,,,,,,,,,,,,,,54,,,,,,,,,,,,,,205.91699997031537,,response,,,,100,,,,,,,Space,keypress(Space),,,,,,,,-- --- ---- --- ------ ----- ------- ---- -- --- ------- --<br>------- ---------- ------ -- ----- in ----- -- ---- ------<br>--- ----- --- --- ------ -------- ----- --- ------ ----- --<br>----- ----- ---------- --- --- ------ ------ ---- -- ------<br>------- --- ------ ----- --- ---- ------- -- ---- --- --<br>------- ------,113434.82999992557,113433.99499997031,113181.152,113196.1349999765,113228.078,113447.649,,17,in
screen,html.Screen,1_1_1_1_18,2021-04-19T00:46:27.920Z,,,,,,,,,,,,,,,,54,,,,,,,,,,,,,,175.6259999035101,,response,,,,100,,,,,,,Space,keypress(Space),,,,,,,,-- --- ---- --- ------ ----- ------- ---- -- --- ------- --<br>------- ---------- ------ -- ----- -- order -- ---- ------<br>--- ----- --- --- ------ -------- ----- --- ------ ----- --<br>----- ----- ---------- --- --- ------ ------ ---- -- ------<br>------- --- ------ ----- --- ---- ------- -- ---- --- --<br>------- ------,113624.11500001326,113623.27499990351,113431.269,113435.01000001561,113447.649,113631.025,,18,order
screen,html.Screen,1_1_1_1_19,2021-04-19T00:46:28.132Z,,,,,,,,,,,,,,,,54,,,,,,,,,,,,,,203.58999994155602,,response,,,,100,,,,,,,Space,keypress(Space),,,,,,,,-- --- ---- --- ------ ----- ------- ---- -- --- ------- --<br>------- ---------- ------ -- ----- -- ----- to ---- ------<br>--- ----- --- --- ------ -------- ----- --- ------ ----- --<br>----- ----- ---------- --- --- ------ ------ ---- -- ------<br>------- --- ------ ----- --- ---- ------- -- ---- --- --<br>------- ------,113835.45499993488,113834.61499994155,113614.658,113624.28999994881,113631.025,113847.806,,19,to
screen,html.Screen,1_1_1_1_20,2021-04-19T00:46:28.320Z,,,,,,,,,,,,,,,,54,,,,,,,,,,,,,,174.76399991368817,,response,,,,100,,,,,,,Space,keypress(Space),,,,,,,,-- --- ---- --- ------ ----- ------- ---- -- --- ------- --<br>------- ---------- ------ -- ----- -- ----- -- save ------<br>--- ----- --- --- ------ -------- ----- --- ------ ----- --<br>----- ----- ---------- --- --- ------ ------ ---- -- ------<br>------- --- ------ ----- --- ---- ------- -- ---- --- --<br>------- ------,114023.43999990262,114022.56999991369,113831.403,113835.62999998685,113847.806,114031.51,,20,save
screen,html.Screen,1_1_1_1_21,2021-04-19T00:46:28.490Z,,,,,,,,,,,,,,,,54,,,,,,,,,,,,,,161.22499993142264,,response,,,,100,,,,,,,Space,keypress(Space),,,,,,,,"-- --- ---- --- ------ ----- ------- ---- -- --- ------- --<br>------- ---------- ------ -- ----- -- ----- -- ---- money,<br>--- ----- --- --- ------ -------- ----- --- ------ ----- --<br>----- ----- ---------- --- --- ------ ------ ---- -- ------<br>------- --- ------ ----- --- ---- ------- -- ---- --- --<br>------- ------",114193.56499996502,114192.73499993142,114014.805,114023.64999998827,114031.51,114197.898,,21,"money,"
screen,html.Screen,1_1_1_1_22,2021-04-19T00:46:28.693Z,,,,,,,,,,,,,,,,54,,,,,,,,,,,,,,198.30199995920702,,response,,,,100,,,,,,,Space,keypress(Space),,,,,,,,-- --- ---- --- ------ ----- ------- ---- -- --- ------- --<br>------- ---------- ------ -- ----- -- ----- -- ---- ------<br>the ----- --- --- ------ -------- ----- --- ------ ----- --<br>----- ----- ---------- --- --- ------ ------ ---- -- ------<br>------- --- ------ ----- --- ---- ------- -- ---- --- --<br>------- ------,114397.06999994814,114396.19999995921,114181.553,114193.73499997891,114197.898,114414.706,,22,the
screen,html.Screen,1_1_1_1_23,2021-04-19T00:46:28.883Z,,,,,,,,,,,,,,,,54,,,,,,,,,,,,,,170.9139999106992,,response,,,,100,,,,,,,Space,keypress(Space),,,,,,,,-- --- ---- --- ------ ----- ------- ---- -- --- ------- --<br>------- ---------- ------ -- ----- -- ----- -- ---- ------<br>--- state --- --- ------ -------- ----- --- ------ ----- --<br>----- ----- ---------- --- --- ------ ------ ---- -- ------<br>------- --- ------ ----- --- ---- ------- -- ---- --- --<br>------- ------,114586.49999997579,114585.6199999107,114381.617,114397.27499999572,114414.706,114598.102,,23,state
screen,html.Screen,1_1_1_1_24,2021-04-19T00:46:29.032Z,,,,,,,,,,,,,,,,54,,,,,,,,,,,,,,137.32800000063435,,response,,,,100,,,,,,,Space,keypress(Space),,,,,,,,-- --- ---- --- ------ ----- ------- ---- -- --- ------- --<br>------- ---------- ------ -- ----- -- ----- -- ---- ------<br>--- ----- cut --- ------ -------- ----- --- ------ ----- --<br>----- ----- ---------- --- --- ------ ------ ---- -- ------<br>------- --- ------ ----- --- ---- ------- -- ---- --- --<br>------- ------,114736.28999991342,114735.43000000063,114581.348,114586.70499990694,114598.102,114748.196,,24,cut
screen,html.Screen,1_1_1_1_25,2021-04-19T00:46:29.215Z,,,,,,,,,,,,,,,,54,,,,,,,,,,,,,,170.1039999029599,,response,,,,100,,,,,,,Space,keypress(Space),,,,,,,,-- --- ---- --- ------ ----- ------- ---- -- --- ------- --<br>------- ---------- ------ -- ----- -- ----- -- ---- ------<br>--- ----- --- the ------ -------- ----- --- ------ ----- --<br>----- ----- ---------- --- --- ------ ------ ---- -- ------<br>------- --- ------ ----- --- ---- ------- -- ---- --- --<br>------- ------,114919.14999997243,114918.29999990296,114731.761,114736.494999961,114748.196,114931.808,,25,the
screen,html.Screen,1_1_1_1_26,2021-04-19T00:46:29.368Z,,,,,,,,,,,,,,,,54,,,,,,,,,,,,,,139.0119999062299,,response,,,,100,,,,,,,Space,keypress(Space),,,,,,,,-- --- ---- --- ------ ----- ------- ---- -- --- ------- --<br>------- ---------- ------ -- ----- -- ----- -- ---- ------<br>--- ----- --- --- bonds' -------- ----- --- ------ ----- --<br>----- ----- ---------- --- --- ------ ------ ---- -- ------<br>------- --- ------ ----- --- ---- ------- -- ---- --- --<br>------- ------,115071.66000001598,115070.81999990623,114915.149,114919.32499990799,114931.808,115081.604,,26,bonds'
screen,html.Screen,1_1_1_1_27,2021-04-19T00:46:29.658Z,,,,,,,,,,,,,,,,54,,,,,,,,,,,,,,279.71099998736463,,response,,,,100,,,,,,,Space,keypress(Space),,,,,,,,-- --- ---- --- ------ ----- ------- ---- -- --- ------- --<br>------- ---------- ------ -- ----- -- ----- -- ---- ------<br>--- ----- --- --- ------ interest ----- --- ------ ----- --<br>----- ----- ---------- --- --- ------ ------ ---- -- ------<br>------- --- ------ ----- --- ---- ------- -- ---- --- --<br>------- ------,115362.14499990456,115361.31499998737,115064.883,115071.86499994714,115081.604,115365.067,,27,interest
screen,html.Screen,1_1_1_1_28,2021-04-19T00:46:29.819Z,,,,,,,,,,,,,,,,54,,,,,,,,,,,,,,156.82299997452355,,response,,,,100,,,,,,,Space,keypress(Space),,,,,,,,-- --- ---- --- ------ ----- ------- ---- -- --- ------- --<br>------- ---------- ------ -- ----- -- ----- -- ---- ------<br>--- ----- --- --- ------ -------- rate. --- ------ ----- --<br>----- ----- ---------- --- --- ------ ------ ---- -- ------<br>------- --- ------ ----- --- ---- ------- -- ---- --- --<br>------- ------,115523.01000000443,115521.88999997452,115348.606,115362.34999995213,115365.067,115531.726,,28,rate.
screen,html.Screen,1_1_1_1_29,2021-04-19T00:46:29.945Z,,,,,,,,,,,,,,,,54,,,,,,,,,,,,,,116.14399998614681,,response,,,,100,,,,,,,Space,keypress(Space),,,,,,,,-- --- ---- --- ------ ----- ------- ---- -- --- ------- --<br>------- ---------- ------ -- ----- -- ----- -- ---- ------<br>--- ----- --- --- ------ -------- ----- The ------ ----- --<br>----- ----- ---------- --- --- ------ ------ ---- -- ------<br>------- --- ------ ----- --- ---- ------- -- ---- --- --<br>------- ------,115648.6449999502,115647.86999998614,115515.02,115523.18999997806,115531.726,115665.163,,29,The
screen,html.Screen,1_1_1_1_30,2021-04-19T00:46:30.425Z,,,,,,,,,,,,,,,,54,,,,,,,,,,,,,,462.27699995291186,,response,,,,100,,,,,,,Space,keypress(Space),,,,,,,,-- --- ---- --- ------ ----- ------- ---- -- --- ------- --<br>------- ---------- ------ -- ----- -- ----- -- ---- ------<br>--- ----- --- --- ------ -------- ----- --- market ----- --<br>----- ----- ---------- --- --- ------ ------ ---- -- ------<br>------- --- ------ ----- --- ---- ------- -- ---- --- --<br>------- ------,116128.34499997552,116127.43999995291,115648.807,115648.84499995969,115665.163,116131.997,,30,market
screen,html.Screen,1_1_1_1_31,2021-04-19T00:46:30.621Z,,,,,,,,,,,,,,,,54,,,,,,,,,,,,,,191.87299996378715,,response,,,,100,,,,,,,Space,keypress(Space),,,,,,,,-- --- ---- --- ------ ----- ------- ---- -- --- ------- --<br>------- ---------- ------ -- ----- -- ----- -- ---- ------<br>--- ----- --- --- ------ -------- ----- --- ------ value --<br>----- ----- ---------- --- --- ------ ------ ---- -- ------<br>------- --- ------ ----- --- ---- ------- -- ---- --- --<br>------- ------,116324.77999990806,116323.86999996379,116115.503,116128.53499990888,116131.997,116332.093,,31,value
screen,html.Screen,1_1_1_1_32,2021-04-19T00:46:30.830Z,,,,,,,,,,,,,,,,54,,,,,,,,,,,,,,201.2070000100648,,response,,,,100,,,,,,,Space,keypress(Space),,,,,,,,-- --- ---- --- ------ ----- ------- ---- -- --- ------- --<br>------- ---------- ------ -- ----- -- ----- -- ---- ------<br>--- ----- --- --- ------ -------- ----- --- ------ ----- of<br>----- ----- ---------- --- --- ------ ------ ---- -- ------<br>------- --- ------ ----- --- ---- ------- -- ---- --- --<br>------- ------,116534.15500000119,116533.30000001006,116315.271,116324.97999991756,116332.093,116548.857,,32,of
screen,html.Screen,1_1_1_1_33,2021-04-19T00:46:31.027Z,,,,,,,,,,,,,,,,54,,,,,,,,,,,,,,180.68299997116264,,response,,,,100,,,,,,,Space,keypress(Space),,,,,,,,-- --- ---- --- ------ ----- ------- ---- -- --- ------- --<br>------- ---------- ------ -- ----- -- ----- -- ---- ------<br>--- ----- --- --- ------ -------- ----- --- ------ ----- --<br>these ----- ---------- --- --- ------ ------ ---- -- ------<br>------- --- ------ ----- --- ---- ------- -- ---- --- --<br>------- ------,116730.4099999601,116729.53999997117,116532.455,116534.36499997042,116548.857,116732.179,,33,these
screen,html.Screen,1_1_1_1_34,2021-04-19T00:46:31.201Z,,,,,,,,,,,,,,,,54,,,,,,,,,,,,,,171.3609999702312,,response,,,,100,,,,,,,Space,keypress(Space),,,,,,,,-- --- ---- --- ------ ----- ------- ---- -- --- ------- --<br>------- ---------- ------ -- ----- -- ----- -- ---- ------<br>--- ----- --- --- ------ -------- ----- --- ------ ----- --<br>----- bonds ---------- --- --- ------ ------ ---- -- ------<br>------- --- ------ ----- --- ---- ------- -- ---- --- --<br>------- ------,116904.36499996576,116903.53999997023,116715.837,116730.61500000767,116732.179,116915.904,,34,bonds
screen,html.Screen,1_1_1_1_35,2021-04-19T00:46:31.351Z,,,,,,,,,,,,,,,,54,,,,,,,,,,,,,,137.76599993566924,,response,,,,100,,,,,,,Space,keypress(Space),,,,,,,,"-- --- ---- --- ------ ----- ------- ---- -- --- ------- --<br>------- ---------- ------ -- ----- -- ----- -- ---- ------<br>--- ----- --- --- ------ -------- ----- --- ------ ----- --<br>----- ----- plummeted, --- --- ------ ------ ---- -- ------<br>------- --- ------ ----- --- ---- ------- -- ---- --- --<br>------- ------",117054.5549999224,117053.66999993566,116898.877,116904.57000001334,116915.904,117065.773,,35,"plummeted,"
screen,html.Screen,1_1_1_1_36,2021-04-19T00:46:31.534Z,,,,,,,,,,,,,,,,54,,,,,,,,,,,,,,171.45199993163988,,response,,,,100,,,,,,,Space,keypress(Space),,,,,,,,-- --- ---- --- ------ ----- ------- ---- -- --- ------- --<br>------- ---------- ------ -- ----- -- ----- -- ---- ------<br>--- ----- --- --- ------ -------- ----- --- ------ ----- --<br>----- ----- ---------- and --- ------ ------ ---- -- ------<br>------- --- ------ ----- --- ---- ------- -- ---- --- --<br>------- ------,117238.12999995425,117237.22499993164,117048.949,117054.75999996997,117065.773,117249.1,,36,and
screen,html.Screen,1_1_1_1_37,2021-04-19T00:46:31.724Z,,,,,,,,,,,,,,,,54,,,,,,,,,,,,,,178.11499991602614,,response,,,,100,,,,,,,Space,keypress(Space),,,,,,,,-- --- ---- --- ------ ----- ------- ---- -- --- ------- --<br>------- ---------- ------ -- ----- -- ----- -- ---- ------<br>--- ----- --- --- ------ -------- ----- --- ------ ----- --<br>----- ----- ---------- --- the ------ ------ ---- -- ------<br>------- --- ------ ----- --- ---- ------- -- ---- --- --<br>------- ------,117428.12499997672,117427.21499991603,117232.712,117238.30999992788,117249.1,117432.478,,37,the
screen,html.Screen,1_1_1_1_38,2021-04-19T00:46:31.918Z,,,,,,,,,,,,,,,,54,,,,,,,,,,,,,,188.22199997038115,,response,,,,100,,,,,,,Space,keypress(Space),,,,,,,,-- --- ---- --- ------ ----- ------- ---- -- --- ------- --<br>------- ---------- ------ -- ----- -- ----- -- ---- ------<br>--- ----- --- --- ------ -------- ----- --- ------ ----- --<br>----- ----- ---------- --- --- market ------ ---- -- ------<br>------- --- ------ ----- --- ---- ------- -- ---- --- --<br>------- ------,117621.53000000399,117620.69999997038,117415.76,117428.29999991227,117432.478,117632.839,,38,market
screen,html.Screen,1_1_1_1_39,2021-04-19T00:46:32.113Z,,,,,,,,,,,,,,,,54,,,,,,,,,,,,,,183.13099999600672,,response,,,,100,,,,,,,Space,keypress(Space),,,,,,,,-- --- ---- --- ------ ----- ------- ---- -- --- ------- --<br>------- ---------- ------ -- ----- -- ----- -- ---- ------<br>--- ----- --- --- ------ -------- ----- --- ------ ----- --<br>----- ----- ---------- --- --- ------ became ---- -- ------<br>------- --- ------ ----- --- ---- ------- -- ---- --- --<br>------- ------,117816.83499994688,117815.96999999601,117616.205,117621.73999997322,117632.839,117832.767,,39,became
screen,html.Screen,1_1_1_1_40,2021-04-19T00:46:32.295Z,,,,,,,,,,,,,,,,54,,,,,,,,,,,,,,165.37299992328917,,response,,,,100,,,,,,,Space,keypress(Space),,,,,,,,-- --- ---- --- ------ ----- ------- ---- -- --- ------- --<br>------- ---------- ------ -- ----- -- ----- -- ---- ------<br>--- ----- --- --- ------ -------- ----- --- ------ ----- --<br>----- ----- ---------- --- --- ------ ------ wary -- ------<br>------- --- ------ ----- --- ---- ------- -- ---- --- --<br>------- ------,117998.9999999525,117998.1399999233,117815.835,117817.0449999161,117832.767,118032.73,,40,wary
screen,html.Screen,1_1_1_1_41,2021-04-19T00:46:32.468Z,,,,,,,,,,,,,,,,54,,,,,,,,,,,,,,138.47499990415236,,response,,,,100,,,,,,,Space,keypress(Space),,,,,,,,-- --- ---- --- ------ ----- ------- ---- -- --- ------- --<br>------- ---------- ------ -- ----- -- ----- -- ---- ------<br>--- ----- --- --- ------ -------- ----- --- ------ ----- --<br>----- ----- ---------- --- --- ------ ------ ---- of ------<br>------- --- ------ ----- --- ---- ------- -- ---- --- --<br>------- ------,118172.12999996264,118171.20499990415,118016.05,117999.20500000007,118032.73,118182.786,,41,of
screen,html.Screen,1_1_1_1_42,2021-04-19T00:46:32.634Z,,,,,,,,,,,,,,,,54,,,,,,,,,,,,,,153.80900000067777,,response,,,,100,,,,,,,Space,keypress(Space),,,,,,,,-- --- ---- --- ------ ----- ------- ---- -- --- ------- --<br>------- ---------- ------ -- ----- -- ----- -- ---- ------<br>--- ----- --- --- ------ -------- ----- --- ------ ----- --<br>----- ----- ---------- --- --- ------ ------ ---- -- French<br>------- --- ------ ----- --- ---- ------- -- ---- --- --<br>------- ------,118337.50999998301,118336.59500000067,118166.063,118172.33999993186,118182.786,118349.523,,42,French
screen,html.Screen,1_1_1_1_43,2021-04-19T00:46:32.883Z,,,,,,,,,,,,,,,,54,,,,,,,,,,,,,,236.60199991431728,,response,,,,100,,,,,,,Space,keypress(Space),,,,,,,,-- --- ---- --- ------ ----- ------- ---- -- --- ------- --<br>------- ---------- ------ -- ----- -- ----- -- ---- ------<br>--- ----- --- --- ------ -------- ----- --- ------ ----- --<br>----- ----- ---------- --- --- ------ ------ ---- -- ------<br>credit. --- ------ ----- --- ---- ------- -- ---- --- --<br>------- ------,118586.8499999633,118586.12499991432,118333.138,118337.68499991857,118349.523,118599.612,,43,credit.
screen,html.Screen,1_1_1_1_44,2021-04-19T00:46:33.086Z,,,,,,,,,,,,,,,,54,,,,,,,,,,,,,,189.58799999926123,,response,,,,100,,,,,,,Space,keypress(Space),,,,,,,,-- --- ---- --- ------ ----- ------- ---- -- --- ------- --<br>------- ---------- ------ -- ----- -- ----- -- ---- ------<br>--- ----- --- --- ------ -------- ----- --- ------ ----- --<br>----- ----- ---------- --- --- ------ ------ ---- -- ------<br>------- The ------ ----- --- ---- ------- -- ---- --- --<br>------- ------,118790.04499991424,118789.19999999925,118582.899,118587.04000001308,118599.612,118799.737,,44,The
screen,html.Screen,1_1_1_1_45,2021-04-19T00:46:33.261Z,,,,,,,,,,,,,,,,54,,,,,,,,,,,,,,164.46299992941204,,response,,,,100,,,,,,,Space,keypress(Space),,,,,,,,-- --- ---- --- ------ ----- ------- ---- -- --- ------- --<br>------- ---------- ------ -- ----- -- ----- -- ---- ------<br>--- ----- --- --- ------ -------- ----- --- ------ ----- --<br>----- ----- ---------- --- --- ------ ------ ---- -- ------<br>------- --- French ----- --- ---- ------- -- ---- --- --<br>------- ------,118965.06999991834,118964.1999999294,118783.298,118790.25499999989,118799.737,118998.024,,45,French
screen,html.Screen,1_1_1_1_46,2021-04-19T00:46:33.416Z,,,,,,,,,,,,,,,,54,,,,,,,,,,,,,,121.3810000049125,,response,,,,100,,,,,,,Space,keypress(Space),,,,,,,,-- --- ---- --- ------ ----- ------- ---- -- --- ------- --<br>------- ---------- ------ -- ----- -- ----- -- ---- ------<br>--- ----- --- --- ------ -------- ----- --- ------ ----- --<br>----- ----- ---------- --- --- ------ ------ ---- -- ------<br>------- --- ------ state --- ---- ------- -- ---- --- --<br>------- ------,119120.24499999825,119119.40500000492,118950.033,118965.25499993004,118998.024,119133.197,,46,state
screen,html.Screen,1_1_1_1_47,2021-04-19T00:46:33.589Z,,,,,,,,,,,,,,,,54,,,,,,,,,,,,,,158.8079999374895,,response,,,,100,,,,,,,Space,keypress(Space),,,,,,,,-- --- ---- --- ------ ----- ------- ---- -- --- ------- --<br>------- ---------- ------ -- ----- -- ----- -- ---- ------<br>--- ----- --- --- ------ -------- ----- --- ------ ----- --<br>----- ----- ---------- --- --- ------ ------ ---- -- ------<br>------- --- ------ ----- was ---- ------- -- ---- --- --<br>------- ------,119292.85999992862,119292.00499993749,119116.788,119120.4349999316,119133.197,119299.817,,47,was
screen,html.Screen,1_1_1_1_48,2021-04-19T00:46:33.749Z,,,,,,,,,,,,,,,,54,,,,,,,,,,,,,,151.6479999328003,,response,,,,100,,,,,,,Space,keypress(Space),,,,,,,,-- --- ---- --- ------ ----- ------- ---- -- --- ------- --<br>------- ---------- ------ -- ----- -- ----- -- ---- ------<br>--- ----- --- --- ------ -------- ----- --- ------ ----- --<br>----- ----- ---------- --- --- ------ ------ ---- -- ------<br>------- --- ------ ----- --- left ------- -- ---- --- --<br>------- ------,119452.31500000227,119451.4649999328,119283.182,119293.07000001427,119299.817,119466.881,,48,left
screen,html.Screen,1_1_1_1_49,2021-04-19T00:46:33.920Z,,,,,,,,,,,,,,,,54,,,,,,,,,,,,,,156.57899991521845,,response,,,,100,,,,,,,Space,keypress(Space),,,,,,,,-- --- ---- --- ------ ----- ------- ---- -- --- ------- --<br>------- ---------- ------ -- ----- -- ----- -- ---- ------<br>--- ----- --- --- ------ -------- ----- --- ------ ----- --<br>----- ----- ---------- --- --- ------ ------ ---- -- ------<br>------- --- ------ ----- --- ---- without -- ---- --- --<br>------- ------,119624.28999994881,119623.45999991521,119450.247,119452.5249999715,119466.881,119633.642,,49,without
screen,html.Screen,1_1_1_1_50,2021-04-19T00:46:34.088Z,,,,,,,,,,,,,,,,54,,,,,,,,,,,,,,157.59300001150405,,response,,,,100,,,,,,,Space,keypress(Space),,,,,,,,-- --- ---- --- ------ ----- ------- ---- -- --- ------- --<br>------- ---------- ------ -- ----- -- ----- -- ---- ------<br>--- ----- --- --- ------ -------- ----- --- ------ ----- --<br>----- ----- ---------- --- --- ------ ------ ---- -- ------<br>------- --- ------ ----- --- ---- ------- an ---- --- --<br>------- ------,119792.19999990892,119791.23500001151,119616.612,119624.48999995831,119633.642,119799.993,,50,an
screen,html.Screen,1_1_1_1_51,2021-04-19T00:46:34.293Z,,,,,,,,,,,,,,,,54,,,,,,,,,,,,,,196.12699990883993,,response,,,,100,,,,,,,Space,keypress(Space),,,,,,,,-- --- ---- --- ------ ----- ------- ---- -- --- ------- --<br>------- ---------- ------ -- ----- -- ----- -- ---- ------<br>--- ----- --- --- ------ -------- ----- --- ------ ----- --<br>----- ----- ---------- --- --- ------ ------ ---- -- ------<br>------- --- ------ ----- --- ---- ------- -- easy --- --<br>------- ------,119996.99499993585,119996.11999990884,119783.698,119792.37499996088,119799.993,120000.121,,51,easy
screen,html.Screen,1_1_1_1_52,2021-04-19T00:46:34.526Z,,,,,,,,,,,,,,,,54,,,,,,,,,,,,,,225.73900000592403,,response,,,,100,,,,,,,Space,keypress(Space),,,,,,,,-- --- ---- --- ------ ----- ------- ---- -- --- ------- --<br>------- ---------- ------ -- ----- -- ----- -- ---- ------<br>--- ----- --- --- ------ -------- ----- --- ------ ----- --<br>----- ----- ---------- --- --- ------ ------ ---- -- ------<br>------- --- ------ ----- --- ---- ------- -- ---- way --<br>------- ------,120226.69999999925,120225.86000000592,119983.752,119997.19999998342,120000.121,120233.475,,52,way
screen,html.Screen,1_1_1_1_53,2021-04-19T00:46:34.849Z,,,,,,,,,,,,,,,,54,,,,,,,,,,,,,,315.2200000049488,,response,,,,100,,,,,,,Space,keypress(Space),,,,,,,,-- --- ---- --- ------ ----- ------- ---- -- --- ------- --<br>------- ---------- ------ -- ----- -- ----- -- ---- ------<br>--- ----- --- --- ------ -------- ----- --- ------ ----- --<br>----- ----- ---------- --- --- ------ ------ ---- -- ------<br>------- --- ------ ----- --- ---- ------- -- ---- --- of<br>------- ------,120549.6399999829,120548.69500000495,120216.991,120226.88999993261,120233.475,120583.7,,53,of
screen,html.Screen,1_1_1_1_54,2021-04-19T00:46:35.123Z,,,,,,,,,,,,,,,,54,,,,,,,,,,,,,,238.28000000790053,,response,,,,100,,,,,,,Space,keypress(Space),,,,,,,,-- --- ---- --- ------ ----- ------- ---- -- --- ------- --<br>------- ---------- ------ -- ----- -- ----- -- ---- ------<br>--- ----- --- --- ------ -------- ----- --- ------ ----- --<br>----- ----- ---------- --- --- ------ ------ ---- -- ------<br>------- --- ------ ----- --- ---- ------- -- ---- --- --<br>raising ------,120822.83999992069,120821.9800000079,120567.056,120549.87499990966,120583.7,120833.757,,54,raising
screen,html.Screen,1_1_1_1_55,2021-04-19T00:46:35.711Z,,,,,,,,,,,,,,,,54,,,,,,,,,,,,,,576.6479999732546,,response,,,,100,,,,,,,Space,keypress(Space),,,,,,,,-- --- ---- --- ------ ----- ------- ---- -- --- ------- --<br>------- ---------- ------ -- ----- -- ----- -- ---- ------<br>--- ----- --- --- ------ -------- ----- --- ------ ----- --<br>----- ----- ---------- --- --- ------ ------ ---- -- ------<br>------- --- ------ ----- --- ---- ------- -- ---- --- --<br>------- money.,121411.26999992412,121410.40499997325,120817.352,120823.03999993019,120833.757,121417.342,,55,money.
Item 100,flow.Loop,1_1_1_1,2021-04-19T00:46:35.711Z,,,,,,,,,,,,,,,,,,,,,,,,,,,,,,14732.004999973258,,completion,,,,,E,,,,,,,,,,,silence,,,,,121411.61499998998,121410.40499997325,106662.072,106663.33499993198,106678.4,121417.342,,,
Question 1,html.Screen,1_1_1_2,2021-04-19T00:46:39.524Z,,,,,,,,,,,,,,,,,,,,,,,,,,,false,TRUE,,3805.033000012103,,response,,,,100,E,,,,,,FALSE,click #choice-2,,,,silence,,,,,125223.8499999512,125222.3750000121,121400.461,121411.75500000827,121417.342,125235.424,,,
Question 2,html.Screen,1_1_1_3,2021-04-19T00:46:40.999Z,,,,,,,,,,,,,,,,,,,,,,,,,,,false,FALSE,,1462.6959999572719,,response,,,,100,E,,,,,,TRUE,click #choice-1,,,,silence,,,,,126699.27499990445,126698.11999995727,125218.672,125224.04499992263,125235.424,126702.845,,,
Item 100,flow.Sequence,1_1_1,2021-04-19T00:46:40.999Z,,,,,,,,,,,,,,,,,,,,,,,,,,,,,,30023.402999957267,,completion,,,,,,,,,,,,,,,,,,,,,126699.53999994323,126698.11999995727,96657.863,96662.0099999709,96674.717,126702.845,,,
End of Practice,html.Page,1_1_2,2021-04-19T00:46:46.531Z,,,,,,,,,,,,,,,,,,,,,,,,,,,,,,5527.954999902955,,form submission,,,,,,,,,,,,,,,,,,,,,132231.31499998271,132230.79999990296,126685.951,126699.65999992564,126702.845,132238.122,,,
Practice,flow.Sequence,1_1,2021-04-19T00:46:46.531Z,,,,,,,,,,,,,,,,,,,,,,,,,,,,,,69619.17599990295,,completion,,,,,,,,,,,,,,,,,,,,,132231.55999998562,132230.79999990296,62594.857,62610.804999945685,62611.624,132238.122,,,
Trap_instruction,html.Page,1_2_0,2021-04-19T00:46:50.687Z,,,,,,,,,,,,,,,,,,,,,,,,,,,,,,4149.147999948327,,form submission,,,,,,,,,,,,,,,,,,,,,136387.72499992047,136387.26999994833,132221.4,132231.71999992337,132238.122,136406.381,,,
trap_trial,html.Screen,1_2_1,2021-04-19T00:46:53.870Z,,,,,,,,,,,,,,,,,,,,,,,,,,,true,1,,3163.033999918087,,response,,,,,,,,,,,1,click #choice-1,,,,,,,,,139570.6899999641,139569.41499991808,136372.974,136387.87999993656,136406.381,139574.256,,,
end of trap trial,html.Page,1_2_2,2021-04-19T00:46:55.893Z,,,,,,,,,,,,,,,,,,,,,,,,,,,,,,2018.3089999408112,,form submission,,,,,,,,,,,,,,,,,,,,,141593.03499991074,141592.5649999408,139557.52,139570.8699999377,139574.256,141608.536,,,
Trap 1,flow.Sequence,1_2,2021-04-19T00:46:55.893Z,,,,,,,,,,,,,,,,,,,,,,,,,,,,,,9354.442999940802,,completion,,,,,,,,,,,,,,,,,,,,,141593.2599999942,141592.5649999408,132221.4,132231.66499997023,132238.122,141608.536,,,
Standby,html.Page,1_3_0,2021-04-19T00:47:03.896Z,,,,,,,,,,,,,,,,,,,,,,,,,,,,,,8003.004000000015,,timeout,,,,,,,,,,,,,,,,,,,,,149596.01999993902,149595.056,141591.663,141593.41999993194,141608.536,149611.54,,,
Holding screen,html.Screen,1_3_1_0_0,2021-04-19T00:47:10.898Z,,,,,,,,,,,,,,,,,,,,,,,,,,,,,,7002.578999999998,,timeout,,,,,,,,,,,,,,,,,,,,,156598.3599999454,156597.434,149595.056,149596.3299999712,149611.54,156614.119,,,
screen,html.Screen,1_3_1_0_1_0,2021-04-19T00:47:12.472Z,,,,,,,,,,,,,,,,48,,,,,,,,,,,,,,1556.8009999459027,,response,,,,10,E,,,,,,Space,keypress(Space),,,,lyrical,,,,As -- --- ------ ------- --------- ----------- --------<br>--------- -------- --- ------- -- ------- ---- -- ------<br>-- --- -------- -------- ---------- ---- ---- ---- ------<br>-- --------- -- ---- -- --- -- --- ------- -- - -----<br>---------- -- -- -- ---- ----- -- ------ -- --- ------<br>-------,158171.9649999868,158170.9199999459,156597.434,156598.63999998197,156614.119,158181.634,,0,As
screen,html.Screen,1_3_1_0_1_1,2021-04-19T00:47:12.777Z,,,,,,,,,,,,,,,,48,,,,,,,,,,,,,,294.28099995906814,,response,,,,10,E,,,,,,Space,keypress(Space),,,,lyrical,,,,-- in --- ------ ------- --------- ----------- --------<br>--------- -------- --- ------- -- ------- ---- -- ------<br>-- --- -------- -------- ---------- ---- ---- ---- ------<br>-- --------- -- ---- -- --- -- --- ------- -- - -----<br>---------- -- -- -- ---- ----- -- ------ -- --- ------<br>-------,158476.77999990992,158475.91499995906,158164.079,158172.1649999963,158181.634,158481.461,,1,in
screen,html.Screen,1_3_1_0_1_2,2021-04-19T00:47:13.062Z,,,,,,,,,,,,,,,,48,,,,,,,,,,,,,,279.44399991550017,,response,,,,10,E,,,,,,Space,keypress(Space),,,,lyrical,,,,-- -- the ------ ------- --------- ----------- --------<br>--------- -------- --- ------- -- ------- ---- -- ------<br>-- --- -------- -------- ---------- ---- ---- ---- ------<br>-- --------- -- ---- -- --- -- --- ------- -- - -----<br>---------- -- -- -- ---- ----- -- ------ -- --- ------<br>-------,158761.83500001207,158760.9049999155,158464.631,158476.98999999557,158481.461,158765.096,,2,the
screen,html.Screen,1_3_1_0_1_3,2021-04-19T00:47:13.295Z,,,,,,,,,,,,,,,,48,,,,,,,,,,,,,,229.3589999199903,,response,,,,10,E,,,,,,Space,keypress(Space),,,,lyrical,,,,-- -- --- United ------- --------- ----------- --------<br>--------- -------- --- ------- -- ------- ---- -- ------<br>-- --- -------- -------- ---------- ---- ---- ---- ------<br>-- --------- -- ---- -- --- -- --- ------- -- - -----<br>---------- -- -- -- ---- ----- -- ------ -- --- ------<br>-------,158995.59499998577,158994.45499991998,158748.151,158762.00999994762,158765.096,158998.324,,3,United
screen,html.Screen,1_3_1_0_1_4,2021-04-19T00:47:13.566Z,,,,,,,,,,,,,,,,48,,,,,,,,,,,,,,266.9709999319457,,response,,,,10,E,,,,,,Space,keypress(Space),,,,lyrical,,,,"-- -- --- ------ States, --------- ----------- --------<br>--------- -------- --- ------- -- ------- ---- -- ------<br>-- --- -------- -------- ---------- ---- ---- ---- ------<br>-- --------- -- ---- -- --- -- --- ------- -- - -----<br>---------- -- -- -- ---- ----- -- ------ -- --- ------<br>-------",159266.22999995016,159265.29499993194,158981.627,158995.79499999527,158998.324,159281.848,,4,"States,"
screen,html.Screen,1_3_1_0_1_5,2021-04-19T00:47:13.846Z,,,,,,,,,,,,,,,,48,,,,,,,,,,,,,,263.52699998696335,,response,,,,10,E,,,,,,Space,keypress(Space),,,,lyrical,,,,-- -- --- ------ ------- Colombian ----------- --------<br>--------- -------- --- ------- -- ------- ---- -- ------<br>-- --- -------- -------- ---------- ---- ---- ---- ------<br>-- --------- -- ---- -- --- -- --- ------- -- - -----<br>---------- -- -- -- ---- ----- -- ------ -- --- ------<br>-------,159546.37499991804,159545.37499998696,159265.265,159266.40999992378,159281.848,159548.543,,5,Colombian
screen,html.Screen,1_3_1_0_1_6,2021-04-19T00:47:14.185Z,,,,,,,,,,,,,,,,48,,,,,,,,,,,,,,335.9220000100904,,response,,,,10,E,,,,,,Space,keypress(Space),,,,lyrical,,,,-- -- --- ------ ------- --------- legislation --------<br>--------- -------- --- ------- -- ------- ---- -- ------<br>-- --- -------- -------- ---------- ---- ---- ---- ------<br>-- --------- -- ---- -- --- -- --- ------- -- - -----<br>---------- -- -- -- ---- ----- -- ------ -- --- ------<br>-------,159885.49999997485,159884.4650000101,159531.765,159546.57999996562,159548.543,159898.746,,6,legislation
screen,html.Screen,1_3_1_0_1_7,2021-04-19T00:47:14.523Z,,,,,,,,,,,,,,,,48,,,,,,,,,,,,,,324.0539999886241,,response,,,,10,E,,,,,,Space,keypress(Space),,,,lyrical,,,,-- -- --- ------ ------- --------- ----------- requires<br>--------- -------- --- ------- -- ------- ---- -- ------<br>-- --- -------- -------- ---------- ---- ---- ---- ------<br>-- --------- -- ---- -- --- -- --- ------- -- - -----<br>---------- -- -- -- ---- ----- -- ------ -- --- ------<br>-------,160223.73500000685,160222.79999998864,159882.199,159885.72999997996,159898.746,160232.153,,7,requires
screen,html.Screen,1_3_1_0_1_8,2021-04-19T00:47:14.892Z,,,,,,,,,,,,,,,,48,,,,,,,,,,,,,,358.99199995485833,,response,,,,10,E,,,,,,Space,keypress(Space),,,,lyrical,,,,-- -- --- ------ ------- --------- ----------- --------<br>travelers -------- --- ------- -- ------- ---- -- ------<br>-- --- -------- -------- ---------- ---- ---- ---- ------<br>-- --------- -- ---- -- --- -- --- ------- -- - -----<br>---------- -- -- -- ---- ----- -- ------ -- --- ------<br>-------,160592.074999935,160591.14499995485,160215.332,160223.9099999424,160232.153,160598.995,,8,travelers
screen,html.Screen,1_3_1_0_1_9,2021-04-19T00:47:15.256Z,,,,,,,,,,,,,,,,48,,,,,,,,,,,,,,356.7300000070827,,response,,,,10,E,,,,,,Space,keypress(Space),,,,lyrical,,,,-- -- --- ------ ------- --------- ----------- --------<br>--------- entering --- ------- -- ------- ---- -- ------<br>-- --- -------- -------- ---------- ---- ---- ---- ------<br>-- --------- -- ---- -- --- -- --- ------- -- - -----<br>---------- -- -- -- ---- ----- -- ------ -- --- ------<br>-------,160956.60999999382,160955.72500000708,160582.061,160592.25499990862,160598.995,160965.741,,9,entering
screen,html.Screen,1_3_1_0_1_10,2021-04-19T00:47:15.589Z,,,,,,,,,,,,,,,,48,,,,,,,,,,,,,,322.8340000132157,,response,,,,10,E,,,,,,Space,keypress(Space),,,,lyrical,,,,-- -- --- ------ ------- --------- ----------- --------<br>--------- -------- the ------- -- ------- ---- -- ------<br>-- --- -------- -------- ---------- ---- ---- ---- ------<br>-- --------- -- ---- -- --- -- --- ------- -- - -----<br>---------- -- -- -- ---- ----- -- ------ -- --- ------<br>-------,161289.43499992602,161288.57500001322,160949.255,160956.78499992937,160965.741,161299.283,,10,the
screen,html.Screen,1_3_1_0_1_11,2021-04-19T00:47:15.943Z,,,,,,,,,,,,,,,,48,,,,,,,,,,,,,,342.97199995518895,,response,,,,10,E,,,,,,Space,keypress(Space),,,,lyrical,,,,-- -- --- ------ ------- --------- ----------- --------<br>--------- -------- --- country -- ------- ---- -- ------<br>-- --- -------- -------- ---------- ---- ---- ---- ------<br>-- --------- -- ---- -- --- -- --- ------- -- - -----<br>---------- -- -- -- ---- ----- -- ------ -- --- ------<br>-------,161643.14499998,161642.25499995518,161282.45,161289.6399999736,161299.283,161649.363,,11,country
screen,html.Screen,1_3_1_0_1_12,2021-04-19T00:47:16.250Z,,,,,,,,,,,,,,,,48,,,,,,,,,,,,,,299.686999937403,,response,,,,10,E,,,,,,Space,keypress(Space),,,,lyrical,,,,-- -- --- ------ ------- --------- ----------- --------<br>--------- -------- --- ------- to ------- ---- -- ------<br>-- --- -------- -------- ---------- ---- ---- ---- ------<br>-- --------- -- ---- -- --- -- --- ------- -- - -----<br>---------- -- -- -- ---- ----- -- ------ -- --- ------<br>-------,161949.90999996662,161949.04999993742,161632.535,161643.34999991115,161649.363,161966.238,,12,to
screen,html.Screen,1_3_1_0_1_13,2021-04-19T00:47:16.571Z,,,,,,,,,,,,,,,,48,,,,,,,,,,,,,,303.98199994757306,,response,,,,10,E,,,,,,Space,keypress(Space),,,,lyrical,,,,-- -- --- ------ ------- --------- ----------- --------<br>--------- -------- --- ------- -- declare ---- -- ------<br>-- --- -------- -------- ---------- ---- ---- ---- ------<br>-- --------- -- ---- -- --- -- --- ------- -- - -----<br>---------- -- -- -- ---- ----- -- ------ -- --- ------<br>-------,162271.0949999746,162270.21999994759,161949.304,161950.10999997612,161966.238,162282.986,,13,declare
screen,html.Screen,1_3_1_0_1_14,2021-04-19T00:47:16.904Z,,,,,,,,,,,,,,,,48,,,,,,,,,,,,,,319.9439999354363,,response,,,,10,E,,,,,,Space,keypress(Space),,,,lyrical,,,,-- -- --- ------ ------- --------- ----------- --------<br>--------- -------- --- ------- -- ------- cash -- ------<br>-- --- -------- -------- ---------- ---- ---- ---- ------<br>-- --------- -- ---- -- --- -- --- ------- -- - -----<br>---------- -- -- -- ---- ----- -- ------ -- --- ------<br>-------,162603.81499992218,162602.92999993544,162266.439,162271.30499994382,162282.986,162616.366,,14,cash
screen,html.Screen,1_3_1_0_1_15,2021-04-19T00:47:17.239Z,,,,,,,,,,,,,,,,48,,,,,,,,,,,,,,322.45899996106164,,response,,,,10,E,,,,,,Space,keypress(Space),,,,lyrical,,,,-- -- --- ------ ------- --------- ----------- --------<br>--------- -------- --- ------- -- ------- ---- in ------<br>-- --- -------- -------- ---------- ---- ---- ---- ------<br>-- --------- -- ---- -- --- -- --- ------- -- - -----<br>---------- -- -- -- ---- ----- -- ------ -- --- ------<br>-------,162939.68999991193,162938.82499996107,162599.573,162604.02500000782,162616.366,162949.798,,15,in
screen,html.Screen,1_3_1_0_1_16,2021-04-19T00:47:17.556Z,,,,,,,,,,,,,,,,48,,,,,,,,,,,,,,305.35699990432477,,response,,,,10,E,,,,,,Space,keypress(Space),,,,lyrical,,,,-- -- --- ------ ------- --------- ----------- --------<br>--------- -------- --- ------- -- ------- ---- -- excess<br>-- --- -------- -------- ---------- ---- ---- ---- ------<br>-- --------- -- ---- -- --- -- --- ------- -- - -----<br>---------- -- -- -- ---- ----- -- ------ -- --- ------<br>-------,163256.07999996282,163255.15499990433,162933.347,162939.8949999595,162949.798,163266.581,,16,excess
screen,html.Screen,1_3_1_0_1_17,2021-04-19T00:47:17.884Z,,,,,,,,,,,,,,,,48,,,,,,,,,,,,,,316.4739999372978,,response,,,,10,E,,,,,,Space,keypress(Space),,,,lyrical,,,,-- -- --- ------ ------- --------- ----------- --------<br>--------- -------- --- ------- -- ------- ---- -- ------<br>of --- -------- -------- ---------- ---- ---- ---- ------<br>-- --------- -- ---- -- --- -- --- ------- -- - -----<br>---------- -- -- -- ---- ----- -- ------ -- --- ------<br>-------,163584.039999987,163583.0549999373,163249.831,163256.28999993205,163266.581,163600.073,,17,of
screen,html.Screen,1_3_1_0_1_18,2021-04-19T00:47:18.183Z,,,,,,,,,,,,,,,,48,,,,,,,,,,,,,,282.2869999304821,,response,,,,10,E,,,,,,Space,keypress(Space),,,,lyrical,,,,-- -- --- ------ ------- --------- ----------- --------<br>--------- -------- --- ------- -- ------- ---- -- ------<br>-- ten -------- -------- ---------- ---- ---- ---- ------<br>-- --------- -- ---- -- --- -- --- ------- -- - -----<br>---------- -- -- -- ---- ----- -- ------ -- --- ------<br>-------,163883.23999999557,163882.3599999305,163583.588,163584.24999995623,163600.073,163900.269,,18,ten
screen,html.Screen,1_3_1_0_1_19,2021-04-19T00:47:18.468Z,,,,,,,,,,,,,,,,48,,,,,,,,,,,,,,267.62599996229983,,response,,,,10,E,,,,,,Space,keypress(Space),,,,lyrical,,,,-- -- --- ------ ------- --------- ----------- --------<br>--------- -------- --- ------- -- ------- ---- -- ------<br>-- --- thousand -------- ---------- ---- ---- ---- ------<br>-- --------- -- ---- -- --- -- --- ------- -- - -----<br>---------- -- -- -- ---- ----- -- ------ -- --- ------<br>-------,164168.68499992415,164167.8949999623,163883.776,163883.45500000287,163900.269,164183.726,,19,thousand
screen,html.Screen,1_3_1_0_1_20,2021-04-19T00:47:18.855Z,,,,,,,,,,,,,,,,48,,,,,,,,,,,,,,370.96899994069827,,response,,,,10,E,,,,,,Space,keypress(Space),,,,lyrical,,,,-- -- --- ------ ------- --------- ----------- --------<br>--------- -------- --- ------- -- ------- ---- -- ------<br>-- --- -------- dollars. ---------- ---- ---- ---- ------<br>-- --------- -- ---- -- --- -- --- ------- -- - -----<br>---------- -- -- -- ---- ----- -- ------ -- --- ------<br>-------,164555.54500001017,164554.6949999407,164166.865,164168.8650000142,164183.726,164567.091,,20,dollars.
screen,html.Screen,1_3_1_0_1_21,2021-04-19T00:47:19.155Z,,,,,,,,,,,,,,,,48,,,,,,,,,,,,,,286.86899997855653,,response,,,,10,E,,,,,,Space,keypress(Space),,,,lyrical,,,,-- -- --- ------ ------- --------- ----------- --------<br>--------- -------- --- ------- -- ------- ---- -- ------<br>-- --- -------- -------- Concealing ---- ---- ---- ------<br>-- --------- -- ---- -- --- -- --- ------- -- - -----<br>---------- -- -- -- ---- ----- -- ------ -- --- ------<br>-------,164854.79999997187,164853.95999997854,164550.346,164555.74499990325,164567.091,164867.209,,21,Concealing
screen,html.Screen,1_3_1_0_1_22,2021-04-19T00:47:19.528Z,,,,,,,,,,,,,,,,48,,,,,,,,,,,,,,360.05099995600176,,response,,,,10,E,,,,,,Space,keypress(Space),,,,lyrical,,,,-- -- --- ------ ------- --------- ----------- --------<br>--------- -------- --- ------- -- ------- ---- -- ------<br>-- --- -------- -------- ---------- more ---- ---- ------<br>-- --------- -- ---- -- --- -- --- ------- -- - -----<br>---------- -- -- -- ---- ----- -- ------ -- --- ------<br>-------,165228.1049999874,165227.259999956,164850.762,164854.9799999455,164867.209,165234.051,,22,more
screen,html.Screen,1_3_1_0_1_23,2021-04-19T00:47:19.806Z,,,,,,,,,,,,,,,,48,,,,,,,,,,,,,,270.84899994169245,,response,,,,10,E,,,,,,Space,keypress(Space),,,,lyrical,,,,-- -- --- ------ ------- --------- ----------- --------<br>--------- -------- --- ------- -- ------- ---- -- ------<br>-- --- -------- -------- ---------- ---- than ---- ------<br>-- --------- -- ---- -- --- -- --- ------- -- - -----<br>---------- -- -- -- ---- ----- -- ------ -- --- ------<br>-------,165505.83499995992,165504.8999999417,165217.549,165228.30999991857,165234.051,165517.474,,23,than
screen,html.Screen,1_3_1_0_1_24,2021-04-19T00:47:20.091Z,,,,,,,,,,,,,,,,48,,,,,,,,,,,,,,272.7959999977029,,response,,,,10,E,,,,,,Space,keypress(Space),,,,lyrical,,,,-- -- --- ------ ------- --------- ----------- --------<br>--------- -------- --- ------- -- ------- ---- -- ------<br>-- --- -------- -------- ---------- ---- ---- that ------<br>-- --------- -- ---- -- --- -- --- ------- -- - -----<br>---------- -- -- -- ---- ----- -- ------ -- --- ------<br>-------,165791.12999991048,165790.2699999977,165500.75,165506.0250000097,165517.474,165800.951,,24,that
screen,html.Screen,1_3_1_0_1_25,2021-04-19T00:47:20.480Z,,,,,,,,,,,,,,,,48,,,,,,,,,,,,,,377.98900001251604,,response,,,,10,E,,,,,,Space,keypress(Space),,,,lyrical,,,,-- -- --- ------ ------- --------- ----------- --------<br>--------- -------- --- ------- -- ------- ---- -- ------<br>-- --- -------- -------- ---------- ---- ---- ---- amount<br>-- --------- -- ---- -- --- -- --- ------- -- - -----<br>---------- -- -- -- ---- ----- -- ------ -- --- ------<br>-------,166179.79500000365,166178.94000001252,165784.229,165791.30499996245,165800.951,166184.412,,25,amount
screen,html.Screen,1_3_1_0_1_26,2021-04-19T00:47:20.781Z,,,,,,,,,,,,,,,,48,,,,,,,,,,,,,,296.1529999761842,,response,,,,10,E,,,,,,Space,keypress(Space),,,,lyrical,,,,-- -- --- ------ ------- --------- ----------- --------<br>--------- -------- --- ------- -- ------- ---- -- ------<br>-- --- -------- -------- ---------- ---- ---- ---- ------<br>to --------- -- ---- -- --- -- --- ------- -- - -----<br>---------- -- -- -- ---- ----- -- ------ -- --- ------<br>-------,166481.44999996293,166480.5649999762,166167.578,166179.9999999348,166184.412,166484.641,,26,to
screen,html.Screen,1_3_1_0_1_27,2021-04-19T00:47:21.048Z,,,,,,,,,,,,,,,,48,,,,,,,,,,,,,,262.8339999819291,,response,,,,10,E,,,,,,Space,keypress(Space),,,,lyrical,,,,-- -- --- ------ ------- --------- ----------- --------<br>--------- -------- --- ------- -- ------- ---- -- ------<br>-- --- -------- -------- ---------- ---- ---- ---- ------<br>-- transport -- ---- -- --- -- --- ------- -- - -----<br>---------- -- -- -- ---- ----- -- ------ -- --- ------<br>-------,166748.2949999394,166747.47499998193,166468.023,166481.6550000105,166484.641,166751.373,,27,transport
screen,html.Screen,1_3_1_0_1_28,2021-04-19T00:47:21.291Z,,,,,,,,,,,,,,,,48,,,,,,,,,,,,,,239.4019999547454,,response,,,,10,E,,,,,,Space,keypress(Space),,,,lyrical,,,,-- -- --- ------ ------- --------- ----------- --------<br>--------- -------- --- ------- -- ------- ---- -- ------<br>-- --- -------- -------- ---------- ---- ---- ---- ------<br>-- --------- it ---- -- --- -- --- ------- -- - -----<br>---------- -- -- -- ---- ----- -- ------ -- --- ------<br>-------,166991.6549999034,166990.77499995474,166734.834,166748.46999999136,166751.373,167001.41,,28,it
screen,html.Screen,1_3_1_0_1_29,2021-04-19T00:47:21.483Z,,,,,,,,,,,,,,,,48,,,,,,,,,,,,,,180.74999996754923,,response,,,,10,E,,,,,,Space,keypress(Space),,,,lyrical,,,,-- -- --- ------ ------- --------- ----------- --------<br>--------- -------- --- ------- -- ------- ---- -- ------<br>-- --- -------- -------- ---------- ---- ---- ---- ------<br>-- --------- -- into -- --- -- --- ------- -- - -----<br>---------- -- -- -- ---- ----- -- ------ -- --- ------<br>-------,167183.0899999477,167182.15999996755,166984.571,166991.8549999129,167001.41,167184.741,,29,into
screen,html.Screen,1_3_1_0_1_30,2021-04-19T00:47:21.646Z,,,,,,,,,,,,,,,,48,,,,,,,,,,,,,,160.60899995957152,,response,,,,10,E,,,,,,Space,keypress(Space),,,,lyrical,,,,-- -- --- ------ ------- --------- ----------- --------<br>--------- -------- --- ------- -- ------- ---- -- ------<br>-- --- -------- -------- ---------- ---- ---- ---- ------<br>-- --------- -- ---- or --- -- --- ------- -- - -----<br>---------- -- -- -- ---- ----- -- ------ -- --- ------<br>-------,167346.35000000708,167345.34999995958,167168.001,167183.26999992132,167184.741,167351.526,,30,or
screen,html.Screen,1_3_1_0_1_31,2021-04-19T00:47:22.283Z,,,,,,,,,,,,,,,,48,,,,,,,,,,,,,,630.9489999679499,,response,,,,10,E,,,,,,Space,keypress(Space),,,,lyrical,,,,-- -- --- ------ ------- --------- ----------- --------<br>--------- -------- --- ------- -- ------- ---- -- ------<br>-- --- -------- -------- ---------- ---- ---- ---- ------<br>-- --------- -- ---- -- out -- --- ------- -- - -----<br>---------- -- -- -- ---- ----- -- ------ -- --- ------<br>-------,167983.35499991663,167982.47499996796,167335.112,167346.55000001658,167351.526,167985.058,,31,out
screen,html.Screen,1_3_1_0_1_32,2021-04-19T00:47:22.468Z,,,,,,,,,,,,,,,,48,,,,,,,,,,,,,,182.06199999825913,,response,,,,10,E,,,,,,Space,keypress(Space),,,,lyrical,,,,-- -- --- ------ ------- --------- ----------- --------<br>--------- -------- --- ------- -- ------- ---- -- ------<br>-- --- -------- -------- ---------- ---- ---- ---- ------<br>-- --------- -- ---- -- --- of --- ------- -- - -----<br>---------- -- -- -- ---- ----- -- ------ -- --- ------<br>-------,168167.81499993522,168167.11999999825,167968.499,167983.5599999642,167985.058,168201.866,,32,of
screen,html.Screen,1_3_1_0_1_33,2021-04-19T00:47:22.710Z,,,,,,,,,,,,,,,,48,,,,,,,,,,,,,,207.9089999491407,,response,,,,10,E,,,,,,Space,keypress(Space),,,,lyrical,,,,-- -- --- ------ ------- --------- ----------- --------<br>--------- -------- --- ------- -- ------- ---- -- ------<br>-- --- -------- -------- ---------- ---- ---- ---- ------<br>-- --------- -- ---- -- --- -- the ------- -- - -----<br>---------- -- -- -- ---- ----- -- ------ -- --- ------<br>-------,168410.64999997616,168409.77499994915,168185.293,168167.9849999491,168201.866,168418.623,,33,the
screen,html.Screen,1_3_1_0_1_34,2021-04-19T00:47:23.068Z,,,,,,,,,,,,,,,,48,,,,,,,,,,,,,,349.02699993611895,,response,,,,10,E,,,,,,Space,keypress(Space),,,,lyrical,,,,-- -- --- ------ ------- --------- ----------- --------<br>--------- -------- --- ------- -- ------- ---- -- ------<br>-- --- -------- -------- ---------- ---- ---- ---- ------<br>-- --------- -- ---- -- --- -- --- country -- - -----<br>---------- -- -- -- ---- ----- -- ------ -- --- ------<br>-------,168768.50999996532,168767.6499999361,168401.871,168410.83499998786,168418.623,168785.356,,34,country
screen,html.Screen,1_3_1_0_1_35,2021-04-19T00:47:23.381Z,,,,,,,,,,,,,,,,48,,,,,,,,,,,,,,295.1439999236318,,response,,,,10,E,,,,,,Space,keypress(Space),,,,lyrical,,,,-- -- --- ------ ------- --------- ----------- --------<br>--------- -------- --- ------- -- ------- ---- -- ------<br>-- --- -------- -------- ---------- ---- ---- ---- ------<br>-- --------- -- ---- -- --- -- --- ------- is - -----<br>---------- -- -- -- ---- ----- -- ------ -- --- ------<br>-------,169081.3499999931,169080.49999992363,168768.582,168768.70999997482,168785.356,169085.515,,35,is
screen,html.Screen,1_3_1_0_1_36,2021-04-19T00:47:23.718Z,,,,,,,,,,,,,,,,48,,,,,,,,,,,,,,331.549999928684,,response,,,,10,E,,,,,,Space,keypress(Space),,,,lyrical,,,,-- -- --- ------ ------- --------- ----------- --------<br>--------- -------- --- ------- -- ------- ---- -- ------<br>-- --- -------- -------- ---------- ---- ---- ---- ------<br>-- --------- -- ---- -- --- -- --- ------- -- a -----<br>---------- -- -- -- ---- ----- -- ------ -- --- ------<br>-------,169417.9099999601,169417.0649999287,169069.028,169081.52499992866,169085.515,169445.292,,36,a
screen,html.Screen,1_3_1_0_1_37,2021-04-19T00:47:23.990Z,,,,,,,,,,,,,,,,48,,,,,,,,,,,,,,244.5879999617173,,response,,,,10,E,,,,,,Space,keypress(Space),,,,lyrical,,,,-- -- --- ------ ------- --------- ----------- --------<br>--------- -------- --- ------- -- ------- ---- -- ------<br>-- --- -------- -------- ---------- ---- ---- ---- ------<br>-- --------- -- ---- -- --- -- --- ------- -- - crime<br>---------- -- -- -- ---- ----- -- ------ -- --- ------<br>-------,169690.75999991037,169689.8799999617,169402.496,169418.1099999696,169445.292,169702.697,,37,crime
screen,html.Screen,1_3_1_0_1_38,2021-04-19T00:47:24.255Z,,,,,,,,,,,,,,,,48,,,,,,,,,,,,,,251.9580000086571,,response,,,,10,E,,,,,,Space,keypress(Space),,,,lyrical,,,,-- -- --- ------ ------- --------- ----------- --------<br>--------- -------- --- ------- -- ------- ---- -- ------<br>-- --- -------- -------- ---------- ---- ---- ---- ------<br>-- --------- -- ---- -- --- -- --- ------- -- - -----<br>punishable -- -- -- ---- ----- -- ------ -- --- ------<br>-------,169955.49999992363,169954.65500000864,169685.638,169690.96499995794,169702.697,169969.253,,38,punishable
screen,html.Screen,1_3_1_0_1_39,2021-04-19T00:47:24.480Z,,,,,,,,,,,,,,,,48,,,,,,,,,,,,,,209.92699997735326,,response,,,,10,E,,,,,,Space,keypress(Space),,,,lyrical,,,,-- -- --- ------ ------- --------- ----------- --------<br>--------- -------- --- ------- -- ------- ---- -- ------<br>-- --- -------- -------- ---------- ---- ---- ---- ------<br>-- --------- -- ---- -- --- -- --- ------- -- - -----<br>---------- by -- -- ---- ----- -- ------ -- --- ------<br>-------,170180.05500000436,170179.17999997735,169952.576,169955.69500001147,169969.253,170185.952,,39,by
screen,html.Screen,1_3_1_0_1_40,2021-04-19T00:47:24.692Z,,,,,,,,,,,,,,,,48,,,,,,,,,,,,,,205.3279999816441,,response,,,,10,E,,,,,,Space,keypress(Space),,,,lyrical,,,,-- -- --- ------ ------- --------- ----------- --------<br>--------- -------- --- ------- -- ------- ---- -- ------<br>-- --- -------- -------- ---------- ---- ---- ---- ------<br>-- --------- -- ---- -- --- -- --- ------- -- - -----<br>---------- -- up -- ---- ----- -- ------ -- --- ------<br>-------,170392.16499996837,170391.27999998163,170169.495,170180.25999993552,170185.952,170402.956,,40,up
screen,html.Screen,1_3_1_0_1_41,2021-04-19T00:47:24.894Z,,,,,,,,,,,,,,,,48,,,,,,,,,,,,,,190.09399990853854,,response,,,,10,E,,,,,,Space,keypress(Space),,,,lyrical,,,,-- -- --- ------ ------- --------- ----------- --------<br>--------- -------- --- ------- -- ------- ---- -- ------<br>-- --- -------- -------- ---------- ---- ---- ---- ------<br>-- --------- -- ---- -- --- -- --- ------- -- - -----<br>---------- -- -- to ---- ----- -- ------ -- --- ------<br>-------,170593.89999997802,170593.04999990854,170385.895,170392.3749999376,170402.956,170602.735,,41,to
screen,html.Screen,1_3_1_0_1_42,2021-04-19T00:47:25.091Z,,,,,,,,,,,,,,,,48,,,,,,,,,,,,,,187.57999999111053,,response,,,,10,E,,,,,,Space,keypress(Space),,,,lyrical,,,,-- -- --- ------ ------- --------- ----------- --------<br>--------- -------- --- ------- -- ------- ---- -- ------<br>-- --- -------- -------- ---------- ---- ---- ---- ------<br>-- --------- -- ---- -- --- -- --- ------- -- - -----<br>---------- -- -- -- five ----- -- ------ -- --- ------<br>-------,170791.19999997783,170790.3149999911,170586.323,170594.07999995165,170602.735,170802.907,,42,five
