sender,sender_type,sender_id,timestamp,meta,,Blues,Classical,Country,Dance,Electronic,Folk,Gospel,Hip-Hop,Jazz,Latin,Musical/Film,New-age,Pop,Provo_ID,R&B,Rap,Reggae,Religious,Rock,Soul,Swing,Traditional,age,artist_name,correct,correctResponse,distraction,duration,education,ended_on,familiarity,gender,headphone_check_performance,item,list,music_frequency,offensiveness,pleasantness,position_correct,preference,response,response_action,snippet_file,song_name,song_rating,sound,stimulus_1,stimulus_2,stimulus_3,text,time_commit,time_end,time_render,time_run,time_show,time_switch,url,word,word_ID
Introduction,html.Screen,0_0,2021-04-25T15:21:05.421Z,"{""labjs_version"":""20.2.2"",""labjs_build"":{""flavor"":""production"",""commit"":""a25486e0c714a0ae2ce03ff94b7bb6896854dcfa""},""location"":""https://run.pavlovia.org/mvasilev/music_b/"",""userAgent"":""Mozilla/5.0 (Macintosh; Intel Mac OS X 10_15_6) AppleWebKit/605.1.15 (KHTML, like Gecko) Version/14.0.3 Safari/605.1.15"",""platform"":""MacIntel"",""language"":""en-gb"",""locale"":""en-GB"",""timeZone"":""Europe/London"",""timezoneOffset"":-60,""screen_width"":1440,""screen_height"":900,""scroll_width"":1332,""scroll_height"":694,""window_innerWidth"":1332,""window_innerHeight"":742,""devicePixelRatio"":2}",,,,,,,,,,,,,,,,,,,,,,,,,,,,,2992,,response,,,,,,,,,,,continue,click button,,,,,,,,,11195,8666,5674,5630,5702,11219,{},,
Volume calibration,html.Screen,0_1,2021-04-25T15:21:18.581Z,,,,,,,,,,,,,,,,,,,,,,,,,,,,,,11858,,response,,,,,,,,,,,continue,click button,,,,,,,,,24355,23060,11202,11195,11219,24383,,,
Task instructions,html.Screen,0_2,2021-04-25T15:21:29.890Z,,,,,,,,,,,,,,,,,,,,,,,,,,,,,,10005,,response,,,,,,,,,,,continue,click button,,,,,,,,,35663.00000000001,34370,24365,24355,24383,35682,,,
Sounds,html.Screen,0_3_0_0,2021-04-25T15:21:34.141Z,,,,,,,,,,,,,,,,,,,,,,,,,,,,,,4249,,timeout,,,,,,,,,3,,,,,,,,O,I,S,,39915,39914,35665,35664,35682,39931,,,
Judgement,html.Screen,0_3_0_1,2021-04-25T15:21:34.714Z,,,,,,,,,,,,,,,,,,,,,,,,,,,true,3,,-719,,response,,,,,,,,,3,,3,click #choice-3,,,,,O,I,S,,40487,39195,39914,39915,39931,40509,,,
Trial,flow.Sequence,0_3_0,2021-04-25T15:21:34.714Z,,,,,,,,,,,,,,,,,,,,,,,,,,,,,,3513,,completion,,,,,,,,,3,,,,,,,,O,I,S,,40488,39195,35665,35664,35682,40509,,,
Sounds,html.Screen,0_3_1_0,2021-04-25T15:21:38.973Z,,,,,,,,,,,,,,,,,,,,,,,,,,,,,,4253,,timeout,,,,,,,,,1,,,,,,,,S,I,O,,44746,44746,40493,40488,40509,44762,,,
Judgement,html.Screen,0_3_1_1,2021-04-25T15:21:39.652Z,,,,,,,,,,,,,,,,,,,,,,,,,,,true,1,,-613,,response,,,,,,,,,1,,1,click #choice-1,,,,,S,I,O,,45425.00000000001,44133,44746,44747,44762,45446,,,
Trial,flow.Sequence,0_3_1,2021-04-25T15:21:39.652Z,,,,,,,,,,,,,,,,,,,,,,,,,,,,,,3624,,completion,,,,,,,,,1,,,,,,,,S,I,O,,45426,44133,40493,40488,40509,45446,,,
Sounds,html.Screen,0_3_2_0,2021-04-25T15:21:43.899Z,,,,,,,,,,,,,,,,,,,,,,,,,,,,,,4242,,timeout,,,,,,,,,3,,,,,,,,I,O,S,,49672.00000000001,49672,45428,45426,45446,49688,,,
Judgement,html.Screen,0_3_2_1,2021-04-25T15:21:44.585Z,,,,,,,,,,,,,,,,,,,,,,,,,,,true,3,,-606,,response,,,,,,,,,3,,3,click #choice-3,,,,,I,O,S,,50359,49066,49672,49673,49688,50385,,,
Trial,flow.Sequence,0_3_2,2021-04-25T15:21:44.586Z,,,,,,,,,,,,,,,,,,,,,,,,,,,,,,3620,,completion,,,,,,,,,3,,,,,,,,I,O,S,,50359,49066,45428,45426,45446,50385,,,
Sounds,html.Screen,0_3_3_0,2021-04-25T15:21:48.849Z,,,,,,,,,,,,,,,,,,,,,,,,,,,,,,4253,,timeout,,,,,,,,,1,,,,,,,,S,O,I,,54622,54621,50369,50359,50385,54638,,,
Judgement,html.Screen,0_3_3_1,2021-04-25T15:21:49.372Z,,,,,,,,,,,,,,,,,,,,,,,,,,,false,1,,-768,,response,,,,,,,,,1,,3,click #choice-3,,,,,S,O,I,,55146,53853,54621,54622,54638,55178,,,
Trial,flow.Sequence,0_3_3,2021-04-25T15:21:49.373Z,,,,,,,,,,,,,,,,,,,,,,,,,,,,,,3468,,completion,,,,,,,,,1,,,,,,,,S,O,I,,55146,53853,50369,50359,50385,55178,,,
Sounds,html.Screen,0_3_4_0,2021-04-25T15:21:53.638Z,,,,,,,,,,,,,,,,,,,,,,,,,,,,,,4250,,timeout,,,,,,,,,2,,,,,,,,O,S,I,,59411,59411,55161,55146,55178,59428,,,
Judgement,html.Screen,0_3_4_1,2021-04-25T15:21:54.351Z,,,,,,,,,,,,,,,,,,,,,,,,,,,true,2,,-579,,response,,,,,,,,,2,,2,click #choice-2,,,,,O,S,I,,60124,58832,59411,59412,59428,60156,,,
Trial,flow.Sequence,0_3_4,2021-04-25T15:21:54.351Z,,,,,,,,,,,,,,,,,,,,,,,,,,,,,,3654,,completion,,,,,,,,,2,,,,,,,,O,S,I,,60125,58832,55161,55146,55178,60156,,,
Sounds,html.Screen,0_3_5_0,2021-04-25T15:21:58.613Z,,,,,,,,,,,,,,,,,,,,,,,,,,,,,,4246,,timeout,,,,,,,,,2,,,,,,,,I,S,O,,64385.99999999999,64385,60140,60125,60156,64402,,,
Judgement,html.Screen,0_3_5_1,2021-04-25T15:21:58.937Z,,,,,,,,,,,,,,,,,,,,,,,,,,,true,2,,-967,,response,,,,,,,,,2,,2,click #choice-2,,,,,I,S,O,,64710.00000000001,63418,64385,64385.99999999999,64402,64738,,,
Trial,flow.Sequence,0_3_5,2021-04-25T15:21:58.938Z,,,,,,,,,,,,,,,,,,,,,,,,,,,,,,3262,,completion,,,,,,,,,2,,,,,,,,I,S,O,,64711,63418,60140,60125,60156,64738,,,
Task,flow.Loop,0_3,2021-04-25T15:21:58.940Z,,,,,,,,,,,,,,,,,,,,,,,,,,,,,,27736,,completion,,,0.8333333333333334,,,,,,,,,,,,,,,,,,64713.00000000001,63418,35665,35664,35682,64738,,,
Trap,html.Screen,0_4,2021-04-25T15:21:58.941Z,,,,,,,,,,,,,,,,,,,,,,,,,,,,,,NaN,,skipped,,,,,,,,,,,,,,,,,,,,,64714,63418,,64714,,64738,,,
Thanks,html.Screen,0_5,2021-04-25T15:22:01.811Z,,,,,,,,,,,,,,,,,,,,,,,,,,,,,,1572,,response,,,,,,,,,,,continue,click button,,,,,,,,,67584,66291,64719,64714,64738,70170,,,
Headphone screening,flow.Sequence,0,2021-04-25T15:22:01.811Z,,,,,,,,,,,,,,,,,,,,,,,,,,,,,,60589,,completion,,,,,,,,,,,,,,,,,,,,,67584,66291,5674,5630,5702,70170,,,
Instructions,html.Page,1_0,2021-04-25T15:22:28.732Z,,,,,,,,,,,,,,,,,,,,,,,,,,,,,,24335,,form submission,,,,,,,,,,,,,,,,,,,,,94505,94505,70162,70143,70170,94529,,,
Holding screen,html.Screen,1_1_0_0,2021-04-25T15:22:38.739Z,,,,,,,,,,,,,,,,,,,,,,,,,,,,,,9999,,timeout,,,,,,,,,,,,,,,,,,,,,104512,104511,94511,94505,94529,104528,,,
screen,html.Screen,1_1_0_1_0,2021-04-25T15:22:39.273Z,,,,,,,,,,,,,,,,53,,,,,,,,,,,,,,-760,,response,,,,99,,,,,,,Space,keypress(Space),,,,,,,,When -- ----- -- ------ - ------- --- ----------<br>------------- ------ ------ ---- ---- ------- ----- -- ----<br>-------- ------- -- ---------- --- - --- ----- ----- ----<br>---- --- --- ----- --- ---- ---- ------- ----- ---- -------<br>--- --- -- ----- -- --- ---- -- --- ---- -- ------ ------<br>--- ----- -- ----,105046,103751,104511,104512,104528,105080,,0,When
screen,html.Screen,1_1_0_1_1,2021-04-25T15:22:39.625Z,,,,,,,,,,,,,,,,53,,,,,,,,,,,,,,-959,,response,,,,99,,,,,,,Space,keypress(Space),,,,,,,,---- it ----- -- ------ - ------- --- ----------<br>------------- ------ ------ ---- ---- ------- ----- -- ----<br>-------- ------- -- ---------- --- - --- ----- ----- ----<br>---- --- --- ----- --- ---- ---- ------- ----- ---- -------<br>--- --- -- ----- -- --- ---- -- --- ---- -- ------ ------<br>--- ----- -- ----,105398,104104,105063,105047,105080,105426,,1,it
screen,html.Screen,1_1_0_1_2,2021-04-25T15:22:39.964Z,,,,,,,,,,,,,,,,53,,,,,,,,,,,,,,-966,,response,,,,99,,,,,,,Space,keypress(Space),,,,,,,,---- -- comes -- ------ - ------- --- ----------<br>------------- ------ ------ ---- ---- ------- ----- -- ----<br>-------- ------- -- ---------- --- - --- ----- ----- ----<br>---- --- --- ----- --- ---- ---- ------- ----- ---- -------<br>--- --- -- ----- -- --- ---- -- --- ---- -- ------ ------<br>--- ----- -- ----,105737.00000000001,104443,105409,105399,105426,105763,,2,comes
screen,html.Screen,1_1_0_1_3,2021-04-25T15:22:40.297Z,,,,,,,,,,,,,,,,53,,,,,,,,,,,,,,-970,,response,,,,99,,,,,,,Space,keypress(Space),,,,,,,,---- -- ----- to ------ - ------- --- ----------<br>------------- ------ ------ ---- ---- ------- ----- -- ----<br>-------- ------- -- ---------- --- - --- ----- ----- ----<br>---- --- --- ----- --- ---- ---- ------- ----- ---- -------<br>--- --- -- ----- -- --- ---- -- --- ---- -- ------ ------<br>--- ----- -- ----,106070.00000000001,104776,105746,105737.00000000001,105763,106098,,3,to
screen,html.Screen,1_1_0_1_4,2021-04-25T15:22:40.686Z,,,,,,,,,,,,,,,,53,,,,,,,,,,,,,,-916,,response,,,,99,,,,,,,Space,keypress(Space),,,,,,,,---- -- ----- -- having - ------- --- ----------<br>------------- ------ ------ ---- ---- ------- ----- -- ----<br>-------- ------- -- ---------- --- - --- ----- ----- ----<br>---- --- --- ----- --- ---- ---- ------- ----- ---- -------<br>--- --- -- ----- -- --- ---- -- --- ---- -- ------ ------<br>--- ----- -- ----,106459,105166,106082,106070.00000000001,106098,106484,,4,having
screen,html.Screen,1_1_0_1_5,2021-04-25T15:22:42.123Z,,,,,,,,,,,,,,,,53,,,,,,,,,,,,,,134,,response,,,,99,,,,,,,Space,keypress(Space),,,,,,,,---- -- ----- -- ------ a ------- --- ----------<br>------------- ------ ------ ---- ---- ------- ----- -- ----<br>-------- ------- -- ---------- --- - --- ----- ----- ----<br>---- --- --- ----- --- ---- ---- ------- ----- ---- -------<br>--- --- -- ----- -- --- ---- -- --- ---- -- ------ ------<br>--- ----- -- ----,107896,106602,106468,106459,106484,107937,,5,a
screen,html.Screen,1_1_0_1_6,2021-04-25T15:22:42.566Z,,,,,,,,,,,,,,,,53,,,,,,,,,,,,,,-876,,response,,,,99,,,,,,,Space,keypress(Space),,,,,,,,---- -- ----- -- ------ - lasting --- ----------<br>------------- ------ ------ ---- ---- ------- ----- -- ----<br>-------- ------- -- ---------- --- - --- ----- ----- ----<br>---- --- --- ----- --- ---- ---- ------- ----- ---- -------<br>--- --- -- ----- -- --- ---- -- --- ---- -- ------ ------<br>--- ----- -- ----,108339,107045,107921,107896,107937,108374,,6,lasting
screen,html.Screen,1_1_0_1_7,2021-04-25T15:22:42.986Z,,,,,,,,,,,,,,,,53,,,,,,,,,,,,,,-892,,response,,,,99,,,,,,,Space,keypress(Space),,,,,,,,---- -- ----- -- ------ - ------- and ----------<br>------------- ------ ------ ---- ---- ------- ----- -- ----<br>-------- ------- -- ---------- --- - --- ----- ----- ----<br>---- --- --- ----- --- ---- ---- ------- ----- ---- -------<br>--- --- -- ----- -- --- ---- -- --- ---- -- ------ ------<br>--- ----- -- ----,108759,107465,108357,108339,108374,108793,,7,and
screen,html.Screen,1_1_0_1_8,2021-04-25T15:22:43.324Z,,,,,,,,,,,,,,,,53,,,,,,,,,,,,,,-975,,response,,,,99,,,,,,,Space,keypress(Space),,,,,,,,---- -- ----- -- ------ - ------- --- fulfilling<br>------------- ------ ------ ---- ---- ------- ----- -- ----<br>-------- ------- -- ---------- --- - --- ----- ----- ----<br>---- --- --- ----- --- ---- ---- ------- ----- ---- -------<br>--- --- -- ----- -- --- ---- -- --- ---- -- ------ ------<br>--- ----- -- ----,109097.00000000001,107803,108778,108759,108793,109130,,8,fulfilling
screen,html.Screen,1_1_0_1_9,2021-04-25T15:22:43.699Z,,,,,,,,,,,,,,,,53,,,,,,,,,,,,,,-936,,response,,,,99,,,,,,,Space,keypress(Space),,,,,,,,"---- -- ----- -- ------ - ------- --- ----------<br>relationship, ------ ------ ---- ---- ------- ----- -- ----<br>-------- ------- -- ---------- --- - --- ----- ----- ----<br>---- --- --- ----- --- ---- ---- ------- ----- ---- -------<br>--- --- -- ----- -- --- ---- -- --- ---- -- ------ ------<br>--- ----- -- ----",109472.00000000001,108178,109114,109097.00000000001,109130,109500,,9,"relationship,"
screen,html.Screen,1_1_0_1_10,2021-04-25T15:22:44.035Z,,,,,,,,,,,,,,,,53,,,,,,,,,,,,,,-969,,response,,,,99,,,,,,,Space,keypress(Space),,,,,,,,---- -- ----- -- ------ - ------- --- ----------<br>------------- common ------ ---- ---- ------- ----- -- ----<br>-------- ------- -- ---------- --- - --- ----- ----- ----<br>---- --- --- ----- --- ---- ---- ------- ----- ---- -------<br>--- --- -- ----- -- --- ---- -- --- ---- -- ------ ------<br>--- ----- -- ----,109808,108514,109483,109472.00000000001,109500,109835,,10,common
screen,html.Screen,1_1_0_1_11,2021-04-25T15:22:44.377Z,,,,,,,,,,,,,,,,53,,,,,,,,,,,,,,-962.9999999999854,,response,,,,99,,,,,,,Space,keypress(Space),,,,,,,,---- -- ----- -- ------ - ------- --- ----------<br>------------- ------ wisdom ---- ---- ------- ----- -- ----<br>-------- ------- -- ---------- --- - --- ----- ----- ----<br>---- --- --- ----- --- ---- ---- ------- ----- ---- -------<br>--- --- -- ----- -- --- ---- -- --- ---- -- ------ ------<br>--- ----- -- ----,110150,108856.00000000001,109819,109808,109835,110172,,11,wisdom
screen,html.Screen,1_1_0_1_12,2021-04-25T15:22:44.675Z,,,,,,,,,,,,,,,,53,,,,,,,,,,,,,,-1000,,response,,,,99,,,,,,,Space,keypress(Space),,,,,,,,---- -- ----- -- ------ - ------- --- ----------<br>------------- ------ ------ says ---- ------- ----- -- ----<br>-------- ------- -- ---------- --- - --- ----- ----- ----<br>---- --- --- ----- --- ---- ---- ------- ----- ---- -------<br>--- --- -- ----- -- --- ---- -- --- ---- -- ------ ------<br>--- ----- -- ----,110448.00000000001,109154,110154,110150,110172,110475,,12,says
screen,html.Screen,1_1_0_1_13,2021-04-25T15:22:44.931Z,,,,,,,,,,,,,,,,53,,,,,,,,,,,,,,-1047,,response,,,,99,,,,,,,Space,keypress(Space),,,,,,,,---- -- ----- -- ------ - ------- --- ----------<br>------------- ------ ------ ---- that ------- ----- -- ----<br>-------- ------- -- ---------- --- - --- ----- ----- ----<br>---- --- --- ----- --- ---- ---- ------- ----- ---- -------<br>--- --- -- ----- -- --- ---- -- --- ---- -- ------ ------<br>--- ----- -- ----,110704.00000000001,109410,110457,110448.00000000001,110475,110726,,13,that
screen,html.Screen,1_1_0_1_14,2021-04-25T15:22:45.283Z,,,,,,,,,,,,,,,,53,,,,,,,,,,,,,,-948,,response,,,,99,,,,,,,Space,keypress(Space),,,,,,,,---- -- ----- -- ------ - ------- --- ----------<br>------------- ------ ------ ---- ---- feeling ----- -- ----<br>-------- ------- -- ---------- --- - --- ----- ----- ----<br>---- --- --- ----- --- ---- ---- ------- ----- ---- -------<br>--- --- -- ----- -- --- ---- -- --- ---- -- ------ ------<br>--- ----- -- ----,111056,109762,110710,110704.00000000001,110726,111080,,14,feeling
screen,html.Screen,1_1_0_1_15,2021-04-25T15:22:45.577Z,,,,,,,,,,,,,,,,53,,,,,,,,,,,,,,-1007,,response,,,,99,,,,,,,Space,keypress(Space),,,,,,,,---- -- ----- -- ------ - ------- --- ----------<br>------------- ------ ------ ---- ---- ------- close -- ----<br>-------- ------- -- ---------- --- - --- ----- ----- ----<br>---- --- --- ----- --- ---- ---- ------- ----- ---- -------<br>--- --- -- ----- -- --- ---- -- --- ---- -- ------ ------<br>--- ----- -- ----,111350.00000000001,110056,111063,111056,111080,111382,,15,close
screen,html.Screen,1_1_0_1_16,2021-04-25T15:22:45.909Z,,,,,,,,,,,,,,,,53,,,,,,,,,,,,,,-978,,response,,,,99,,,,,,,Space,keypress(Space),,,,,,,,---- -- ----- -- ------ - ------- --- ----------<br>------------- ------ ------ ---- ---- ------- ----- to ----<br>-------- ------- -- ---------- --- - --- ----- ----- ----<br>---- --- --- ----- --- ---- ---- ------- ----- ---- -------<br>--- --- -- ----- -- --- ---- -- --- ---- -- ------ ------<br>--- ----- -- ----,111682,110388,111366,111350.00000000001,111382,111701,,16,to
screen,html.Screen,1_1_0_1_17,2021-04-25T15:22:46.247Z,,,,,,,,,,,,,,,,53,,,,,,,,,,,,,,-960,,response,,,,99,,,,,,,Space,keypress(Space),,,,,,,,---- -- ----- -- ------ - ------- --- ----------<br>------------- ------ ------ ---- ---- ------- ----- -- your<br>-------- ------- -- ---------- --- - --- ----- ----- ----<br>---- --- --- ----- --- ---- ---- ------- ----- ---- -------<br>--- --- -- ----- -- --- ---- -- --- ---- -- ------ ------<br>--- ----- -- ----,112020,110724,111684,111682,111701,112053,,17,your
screen,html.Screen,1_1_0_1_18,2021-04-25T15:22:46.550Z,,,,,,,,,,,,,,,,53,,,,,,,,,,,,,,-1008,,response,,,,99,,,,,,,Space,keypress(Space),,,,,,,,---- -- ----- -- ------ - ------- --- ----------<br>------------- ------ ------ ---- ---- ------- ----- -- ----<br>romantic ------- -- ---------- --- - --- ----- ----- ----<br>---- --- --- ----- --- ---- ---- ------- ----- ---- -------<br>--- --- -- ----- -- --- ---- -- --- ---- -- ------ ------<br>--- ----- -- ----,112323.00000000001,111029,112037,112020,112053,112357,,18,romantic
screen,html.Screen,1_1_0_1_19,2021-04-25T15:22:46.818Z,,,,,,,,,,,,,,,,53,,,,,,,,,,,,,,-1043,,response,,,,99,,,,,,,Space,keypress(Space),,,,,,,,---- -- ----- -- ------ - ------- --- ----------<br>------------- ------ ------ ---- ---- ------- ----- -- ----<br>-------- partner -- ---------- --- - --- ----- ----- ----<br>---- --- --- ----- --- ---- ---- ------- ----- ---- -------<br>--- --- -- ----- -- --- ---- -- --- ---- -- ------ ------<br>--- ----- -- ----,112591.00000000001,111297,112340,112323.00000000001,112357,112610,,19,partner
screen,html.Screen,1_1_0_1_20,2021-04-25T15:22:47.127Z,,,,,,,,,,,,,,,,53,,,,,,,,,,,,,,-985.9999999999854,,response,,,,99,,,,,,,Space,keypress(Space),,,,,,,,---- -- ----- -- ------ - ------- --- ----------<br>------------- ------ ------ ---- ---- ------- ----- -- ----<br>-------- ------- is ---------- --- - --- ----- ----- ----<br>---- --- --- ----- --- ---- ---- ------- ----- ---- -------<br>--- --- -- ----- -- --- ---- -- --- ---- -- ------ ------<br>--- ----- -- ----,112900,111606.00000000001,112592,112591.00000000001,112610,112929,,20,is
screen,html.Screen,1_1_0_1_21,2021-04-25T15:22:47.403Z,,,,,,,,,,,,,,,,53,,,,,,,,,,,,,,-1030,,response,,,,99,,,,,,,Space,keypress(Space),,,,,,,,---- -- ----- -- ------ - ------- --- ----------<br>------------- ------ ------ ---- ---- ------- ----- -- ----<br>-------- ------- -- paramount. --- - --- ----- ----- ----<br>---- --- --- ----- --- ---- ---- ------- ----- ---- -------<br>--- --- -- ----- -- --- ---- -- --- ---- -- ------ ------<br>--- ----- -- ----,113176,111882,112912,112900,112929,113197,,21,paramount.
screen,html.Screen,1_1_0_1_22,2021-04-25T15:22:47.731Z,,,,,,,,,,,,,,,,53,,,,,,,,,,,,,,-970.9999999999854,,response,,,,99,,,,,,,Space,keypress(Space),,,,,,,,---- -- ----- -- ------ - ------- --- ----------<br>------------- ------ ------ ---- ---- ------- ----- -- ----<br>-------- ------- -- ---------- But - --- ----- ----- ----<br>---- --- --- ----- --- ---- ---- ------- ----- ---- -------<br>--- --- -- ----- -- --- ---- -- --- ---- -- ------ ------<br>--- ----- -- ----,113503,112210.00000000001,113181,113176,113197,113535,,22,But
screen,html.Screen,1_1_0_1_23,2021-04-25T15:22:48.024Z,,,,,,,,,,,,,,,,53,,,,,,,,,,,,,,-1015,,response,,,,99,,,,,,,Space,keypress(Space),,,,,,,,---- -- ----- -- ------ - ------- --- ----------<br>------------- ------ ------ ---- ---- ------- ----- -- ----<br>-------- ------- -- ---------- --- a --- ----- ----- ----<br>---- --- --- ----- --- ---- ---- ------- ----- ---- -------<br>--- --- -- ----- -- --- ---- -- --- ---- -- ------ ------<br>--- ----- -- ----,113797,112503,113518,113504,113535,113820,,23,a
screen,html.Screen,1_1_0_1_24,2021-04-25T15:22:48.311Z,,,,,,,,,,,,,,,,53,,,,,,,,,,,,,,-1013,,response,,,,99,,,,,,,Space,keypress(Space),,,,,,,,---- -- ----- -- ------ - ------- --- ----------<br>------------- ------ ------ ---- ---- ------- ----- -- ----<br>-------- ------- -- ---------- --- - new ----- ----- ----<br>---- --- --- ----- --- ---- ---- ------- ----- ---- -------<br>--- --- -- ----- -- --- ---- -- --- ---- -- ------ ------<br>--- ----- -- ----,114084,112790,113803,113797,113820,114107,,24,new
screen,html.Screen,1_1_0_1_25,2021-04-25T15:22:48.604Z,,,,,,,,,,,,,,,,53,,,,,,,,,,,,,,-1007,,response,,,,99,,,,,,,Space,keypress(Space),,,,,,,,---- -- ----- -- ------ - ------- --- ----------<br>------------- ------ ------ ---- ---- ------- ----- -- ----<br>-------- ------- -- ---------- --- - --- study ----- ----<br>---- --- --- ----- --- ---- ---- ------- ----- ---- -------<br>--- --- -- ----- -- --- ---- -- --- ---- -- ------ ------<br>--- ----- -- ----,114377,113083,114090,114084,114107,114409,,25,study
screen,html.Screen,1_1_0_1_26,2021-04-25T15:22:48.893Z,,,,,,,,,,,,,,,,53,,,,,,,,,,,,,,-1020.9999999999854,,response,,,,99,,,,,,,Space,keypress(Space),,,,,,,,---- -- ----- -- ------ - ------- --- ----------<br>------------- ------ ------ ---- ---- ------- ----- -- ----<br>-------- ------- -- ---------- --- - --- ----- finds ----<br>---- --- --- ----- --- ---- ---- ------- ----- ---- -------<br>--- --- -- ----- -- --- ---- -- --- ---- -- ------ ------<br>--- ----- -- ----,114665,113371.00000000001,114392,114377,114409,114696,,26,finds
screen,html.Screen,1_1_0_1_27,2021-04-25T15:22:49.178Z,,,,,,,,,,,,,,,,53,,,,,,,,,,,,,,-1022,,response,,,,99,,,,,,,Space,keypress(Space),,,,,,,,---- -- ----- -- ------ - ------- --- ----------<br>------------- ------ ------ ---- ---- ------- ----- -- ----<br>-------- ------- -- ---------- --- - --- ----- ----- that<br>---- --- --- ----- --- ---- ---- ------- ----- ---- -------<br>--- --- -- ----- -- --- ---- -- --- ---- -- ------ ------<br>--- ----- -- ----,114951.00000000001,113657,114679,114665,114696,114981,,27,that
screen,html.Screen,1_1_0_1_28,2021-04-25T15:22:49.466Z,,,,,,,,,,,,,,,,53,,,,,,,,,,,,,,-1018.9999999999854,,response,,,,99,,,,,,,Space,keypress(Space),,,,,,,,---- -- ----- -- ------ - ------- --- ----------<br>------------- ------ ------ ---- ---- ------- ----- -- ----<br>-------- ------- -- ---------- --- - --- ----- ----- ----<br>it's --- --- ----- --- ---- ---- ------- ----- ---- -------<br>--- --- -- ----- -- --- ---- -- --- ---- -- ------ ------<br>--- ----- -- ----,115239,113945.00000000001,114964,114951.00000000001,114981,115268,,28,it's
screen,html.Screen,1_1_0_1_29,2021-04-25T15:22:49.789Z,,,,,,,,,,,,,,,,53,,,,,,,,,,,,,,-983,,response,,,,99,,,,,,,Space,keypress(Space),,,,,,,,---- -- ----- -- ------ - ------- --- ----------<br>------------- ------ ------ ---- ---- ------- ----- -- ----<br>-------- ------- -- ---------- --- - --- ----- ----- ----<br>---- not --- ----- --- ---- ---- ------- ----- ---- -------<br>--- --- -- ----- -- --- ---- -- --- ---- -- ------ ------<br>--- ----- -- ----,115562,114268,115251,115239,115268,115588,,29,not
screen,html.Screen,1_1_0_1_30,2021-04-25T15:22:50.064Z,,,,,,,,,,,,,,,,53,,,,,,,,,,,,,,-1027,,response,,,,99,,,,,,,Space,keypress(Space),,,,,,,,---- -- ----- -- ------ - ------- --- ----------<br>------------- ------ ------ ---- ---- ------- ----- -- ----<br>-------- ------- -- ---------- --- - --- ----- ----- ----<br>---- --- how ----- --- ---- ---- ------- ----- ---- -------<br>--- --- -- ----- -- --- ---- -- --- ---- -- ------ ------<br>--- ----- -- ----,115837,114543,115570,115562,115588,115857,,30,how
screen,html.Screen,1_1_0_1_31,2021-04-25T15:22:50.367Z,,,,,,,,,,,,,,,,53,,,,,,,,,,,,,,-994,,response,,,,99,,,,,,,Space,keypress(Space),,,,,,,,---- -- ----- -- ------ - ------- --- ----------<br>------------- ------ ------ ---- ---- ------- ----- -- ----<br>-------- ------- -- ---------- --- - --- ----- ----- ----<br>---- --- --- close --- ---- ---- ------- ----- ---- -------<br>--- --- -- ----- -- --- ---- -- --- ---- -- ------ ------<br>--- ----- -- ----,116139,114846,115840,115837,115857,116159,,31,close
screen,html.Screen,1_1_0_1_32,2021-04-25T15:22:50.660Z,,,,,,,,,,,,,,,,53,,,,,,,,,,,,,,-1003,,response,,,,99,,,,,,,Space,keypress(Space),,,,,,,,---- -- ----- -- ------ - ------- --- ----------<br>------------- ------ ------ ---- ---- ------- ----- -- ----<br>-------- ------- -- ---------- --- - --- ----- ----- ----<br>---- --- --- ----- you ---- ---- ------- ----- ---- -------<br>--- --- -- ----- -- --- ---- -- --- ---- -- ------ ------<br>--- ----- -- ----,116433,115139,116142,116139,116159,116462,,32,you
screen,html.Screen,1_1_0_1_33,2021-04-25T15:22:50.958Z,,,,,,,,,,,,,,,,53,,,,,,,,,,,,,,-1009,,response,,,,99,,,,,,,Space,keypress(Space),,,,,,,,---- -- ----- -- ------ - ------- --- ----------<br>------------- ------ ------ ---- ---- ------- ----- -- ----<br>-------- ------- -- ---------- --- - --- ----- ----- ----<br>---- --- --- ----- --- feel ---- ------- ----- ---- -------<br>--- --- -- ----- -- --- ---- -- --- ---- -- ------ ------<br>--- ----- -- ----,116731.00000000001,115436,116445,116433,116462,116765,,33,feel
screen,html.Screen,1_1_0_1_34,2021-04-25T15:22:51.276Z,,,,,,,,,,,,,,,,53,,,,,,,,,,,,,,-994,,response,,,,99,,,,,,,Space,keypress(Space),,,,,,,,---- -- ----- -- ------ - ------- --- ----------<br>------------- ------ ------ ---- ---- ------- ----- -- ----<br>-------- ------- -- ---------- --- - --- ----- ----- ----<br>---- --- --- ----- --- ---- that ------- ----- ---- -------<br>--- --- -- ----- -- --- ---- -- --- ---- -- ------ ------<br>--- ----- -- ----,117049,115755,116749,116731.00000000001,116765,117068,,34,that
screen,html.Screen,1_1_0_1_35,2021-04-25T15:22:51.541Z,,,,,,,,,,,,,,,,53,,,,,,,,,,,,,,-1031,,response,,,,99,,,,,,,Space,keypress(Space),,,,,,,,---- -- ----- -- ------ - ------- --- ----------<br>------------- ------ ------ ---- ---- ------- ----- -- ----<br>-------- ------- -- ---------- --- - --- ----- ----- ----<br>---- --- --- ----- --- ---- ---- matters ----- ---- -------<br>--- --- -- ----- -- --- ---- -- --- ---- -- ------ ------<br>--- ----- -- ----,117314,116019,117050,117049,117068,117337,,35,matters
screen,html.Screen,1_1_0_1_36,2021-04-25T15:22:51.837Z,,,,,,,,,,,,,,,,53,,,,,,,,,,,,,,-1003,,response,,,,99,,,,,,,Space,keypress(Space),,,,,,,,"---- -- ----- -- ------ - ------- --- ----------<br>------------- ------ ------ ---- ---- ------- ----- -- ----<br>-------- ------- -- ---------- --- - --- ----- ----- ----<br>---- --- --- ----- --- ---- ---- ------- most, ---- -------<br>--- --- -- ----- -- --- ---- -- --- ---- -- ------ ------<br>--- ----- -- ----",117610,116317,117320,117314,117337,117639,,36,"most,"
screen,html.Screen,1_1_0_1_37,2021-04-25T15:22:52.136Z,,,,,,,,,,,,,,,,53,,,,,,,,,,,,,,-1007.9999999999854,,response,,,,99,,,,,,,Space,keypress(Space),,,,,,,,---- -- ----- -- ------ - ------- --- ----------<br>------------- ------ ------ ---- ---- ------- ----- -- ----<br>-------- ------- -- ---------- --- - --- ----- ----- ----<br>---- --- --- ----- --- ---- ---- ------- ----- it's -------<br>--- --- -- ----- -- --- ---- -- --- ---- -- ------ ------<br>--- ----- -- ----,117909,116615.00000000001,117623,117610,117639,117943,,37,it's
screen,html.Screen,1_1_0_1_38,2021-04-25T15:22:52.421Z,,,,,,,,,,,,,,,,53,,,,,,,,,,,,,,-1027,,response,,,,99,,,,,,,Space,keypress(Space),,,,,,,,---- -- ----- -- ------ - ------- --- ----------<br>------------- ------ ------ ---- ---- ------- ----- -- ----<br>-------- ------- -- ---------- --- - --- ----- ----- ----<br>---- --- --- ----- --- ---- ---- ------- ----- ---- whether<br>--- --- -- ----- -- --- ---- -- --- ---- -- ------ ------<br>--- ----- -- ----,118194,116900,117927,117909,117943,118229,,38,whether
screen,html.Screen,1_1_0_1_39,2021-04-25T15:22:52.728Z,,,,,,,,,,,,,,,,53,,,,,,,,,,,,,,-1006,,response,,,,99,,,,,,,Space,keypress(Space),,,,,,,,---- -- ----- -- ------ - ------- --- ----------<br>------------- ------ ------ ---- ---- ------- ----- -- ----<br>-------- ------- -- ---------- --- - --- ----- ----- ----<br>---- --- --- ----- --- ---- ---- ------- ----- ---- -------<br>you --- -- ----- -- --- ---- -- --- ---- -- ------ ------<br>--- ----- -- ----,118500,117206,118212,118194,118229,118531,,39,you
screen,html.Screen,1_1_0_1_40,2021-04-25T15:22:53.037Z,,,,,,,,,,,,,,,,53,,,,,,,,,,,,,,-1000,,response,,,,99,,,,,,,Space,keypress(Space),,,,,,,,---- -- ----- -- ------ - ------- --- ----------<br>------------- ------ ------ ---- ---- ------- ----- -- ----<br>-------- ------- -- ---------- --- - --- ----- ----- ----<br>---- --- --- ----- --- ---- ---- ------- ----- ---- -------<br>--- are -- ----- -- --- ---- -- --- ---- -- ------ ------<br>--- ----- -- ----,118810,117515,118515,118500,118531,118834,,40,are
screen,html.Screen,1_1_0_1_41,2021-04-25T15:22:53.329Z,,,,,,,,,,,,,,,,53,,,,,,,,,,,,,,-1011,,response,,,,99,,,,,,,Space,keypress(Space),,,,,,,,---- -- ----- -- ------ - ------- --- ----------<br>------------- ------ ------ ---- ---- ------- ----- -- ----<br>-------- ------- -- ---------- --- - --- ----- ----- ----<br>---- --- --- ----- --- ---- ---- ------- ----- ---- -------<br>--- --- as ----- -- --- ---- -- --- ---- -- ------ ------<br>--- ----- -- ----,119101,117807,118818,118810,118834,119120,,41,as
screen,html.Screen,1_1_0_1_42,2021-04-25T15:22:53.616Z,,,,,,,,,,,,,,,,53,,,,,,,,,,,,,,-1009.9999999999854,,response,,,,99,,,,,,,Space,keypress(Space),,,,,,,,---- -- ----- -- ------ - ------- --- ----------<br>------------- ------ ------ ---- ---- ------- ----- -- ----<br>-------- ------- -- ---------- --- - --- ----- ----- ----<br>---- --- --- ----- --- ---- ---- ------- ----- ---- -------<br>--- --- -- close -- --- ---- -- --- ---- -- ------ ------<br>--- ----- -- ----,119389,118094.00000000001,119104,119102,119120,119406,,42,close
screen,html.Screen,1_1_0_1_43,2021-04-25T15:22:53.922Z,,,,,,,,,,,,,,,,53,,,,,,,,,,,,,,-990,,response,,,,99,,,,,,,Space,keypress(Space),,,,,,,,---- -- ----- -- ------ - ------- --- ----------<br>------------- ------ ------ ---- ---- ------- ----- -- ----<br>-------- ------- -- ---------- --- - --- ----- ----- ----<br>---- --- --- ----- --- ---- ---- ------- ----- ---- -------<br>--- --- -- ----- as --- ---- -- --- ---- -- ------ ------<br>--- ----- -- ----,119695.00000000001,118400,119390,119389,119406,119725,,43,as
screen,html.Screen,1_1_0_1_44,2021-04-25T15:22:54.214Z,,,,,,,,,,,,,,,,53,,,,,,,,,,,,,,-1017,,response,,,,99,,,,,,,Space,keypress(Space),,,,,,,,---- -- ----- -- ------ - ------- --- ----------<br>------------- ------ ------ ---- ---- ------- ----- -- ----<br>-------- ------- -- ---------- --- - --- ----- ----- ----<br>---- --- --- ----- --- ---- ---- ------- ----- ---- -------<br>--- --- -- ----- -- you ---- -- --- ---- -- ------ ------<br>--- ----- -- ----,119987.00000000001,118692,119709,119695.00000000001,119725,120011,,44,you
screen,html.Screen,1_1_0_1_45,2021-04-25T15:22:54.494Z,,,,,,,,,,,,,,,,53,,,,,,,,,,,,,,-1022.9999999999854,,response,,,,99,,,,,,,Space,keypress(Space),,,,,,,,---- -- ----- -- ------ - ------- --- ----------<br>------------- ------ ------ ---- ---- ------- ----- -- ----<br>-------- ------- -- ---------- --- - --- ----- ----- ----<br>---- --- --- ----- --- ---- ---- ------- ----- ---- -------<br>--- --- -- ----- -- --- want -- --- ---- -- ------ ------<br>--- ----- -- ----,120266,118972.00000000001,119995,119987.00000000001,120011,120297,,45,want
screen,html.Screen,1_1_0_1_46,2021-04-25T15:22:54.788Z,,,,,,,,,,,,,,,,53,,,,,,,,,,,,,,-1014,,response,,,,99,,,,,,,Space,keypress(Space),,,,,,,,---- -- ----- -- ------ - ------- --- ----------<br>------------- ------ ------ ---- ---- ------- ----- -- ----<br>-------- ------- -- ---------- --- - --- ----- ----- ----<br>---- --- --- ----- --- ---- ---- ------- ----- ---- -------<br>--- --- -- ----- -- --- ---- to --- ---- -- ------ ------<br>--- ----- -- ----,120561,119267,120281,120266,120297,120583,,46,to
screen,html.Screen,1_1_0_1_47,2021-04-25T15:22:55.081Z,,,,,,,,,,,,,,,,53,,,,,,,,,,,,,,-1008,,response,,,,99,,,,,,,Space,keypress(Space),,,,,,,,"---- -- ----- -- ------ - ------- --- ----------<br>------------- ------ ------ ---- ---- ------- ----- -- ----<br>-------- ------- -- ---------- --- - --- ----- ----- ----<br>---- --- --- ----- --- ---- ---- ------- ----- ---- -------<br>--- --- -- ----- -- --- ---- -- be, ---- -- ------ ------<br>--- ----- -- ----",120853.00000000001,119559,120567,120561,120583,120887,,47,"be,"
screen,html.Screen,1_1_0_1_48,2021-04-25T15:22:55.392Z,,,,,,,,,,,,,,,,53,,,,,,,,,,,,,,-998.9999999999854,,response,,,,99,,,,,,,Space,keypress(Space),,,,,,,,---- -- ----- -- ------ - ------- --- ----------<br>------------- ------ ------ ---- ---- ------- ----- -- ----<br>-------- ------- -- ---------- --- - --- ----- ----- ----<br>---- --- --- ----- --- ---- ---- ------- ----- ---- -------<br>--- --- -- ----- -- --- ---- -- --- even -- ------ ------<br>--- ----- -- ----,121165,119871.00000000001,120870,120854,120887,121189,,48,even
screen,html.Screen,1_1_0_1_49,2021-04-25T15:22:55.674Z,,,,,,,,,,,,,,,,53,,,,,,,,,,,,,,-1022,,response,,,,99,,,,,,,Space,keypress(Space),,,,,,,,---- -- ----- -- ------ - ------- --- ----------<br>------------- ------ ------ ---- ---- ------- ----- -- ----<br>-------- ------- -- ---------- --- - --- ----- ----- ----<br>---- --- --- ----- --- ---- ---- ------- ----- ---- -------<br>--- --- -- ----- -- --- ---- -- --- ---- if ------ ------<br>--- ----- -- ----,121446,120152,121174,121165,121189,121474,,49,if
screen,html.Screen,1_1_0_1_50,2021-04-25T15:22:55.948Z,,,,,,,,,,,,,,,,53,,,,,,,,,,,,,,-1032,,response,,,,99,,,,,,,Space,keypress(Space),,,,,,,,---- -- ----- -- ------ - ------- --- ----------<br>------------- ------ ------ ---- ---- ------- ----- -- ----<br>-------- ------- -- ---------- --- - --- ----- ----- ----<br>---- --- --- ----- --- ---- ---- ------- ----- ---- -------<br>--- --- -- ----- -- --- ---- -- --- ---- -- that's ------<br>--- ----- -- ----,121721,120427,121459,121446,121474,121744,,50,that's
screen,html.Screen,1_1_0_1_51,2021-04-25T15:22:56.242Z,,,,,,,,,,,,,,,,53,,,,,,,,,,,,,,-1007,,response,,,,99,,,,,,,Space,keypress(Space),,,,,,,,---- -- ----- -- ------ - ------- --- ----------<br>------------- ------ ------ ---- ---- ------- ----- -- ----<br>-------- ------- -- ---------- --- - --- ----- ----- ----<br>---- --- --- ----- --- ---- ---- ------- ----- ---- -------<br>--- --- -- ----- -- --- ---- -- --- ---- -- ------ really<br>--- ----- -- ----,122014,120720,121727,121721,121744,122048,,51,really
screen,html.Screen,1_1_0_1_52,2021-04-25T15:22:56.526Z,,,,,,,,,,,,,,,,53,,,,,,,,,,,,,,-1026,,response,,,,99,,,,,,,Space,keypress(Space),,,,,,,,---- -- ----- -- ------ - ------- --- ----------<br>------------- ------ ------ ---- ---- ------- ----- -- ----<br>-------- ------- -- ---------- --- - --- ----- ----- ----<br>---- --- --- ----- --- ---- ---- ------- ----- ---- -------<br>--- --- -- ----- -- --- ---- -- --- ---- -- ------ ------<br>not ----- -- ----,122299,121005,122031,122015,122048,122333,,52,not
screen,html.Screen,1_1_0_1_53,2021-04-25T15:22:56.800Z,,,,,,,,,,,,,,,,53,,,,,,,,,,,,,,-1039,,response,,,,99,,,,,,,Space,keypress(Space),,,,,,,,---- -- ----- -- ------ - ------- --- ----------<br>------------- ------ ------ ---- ---- ------- ----- -- ----<br>-------- ------- -- ---------- --- - --- ----- ----- ----<br>---- --- --- ----- --- ---- ---- ------- ----- ---- -------<br>--- --- -- ----- -- --- ---- -- --- ---- -- ------ ------<br>--- close -- ----,122572,121278,122317,122299,122333,122603,,53,close
screen,html.Screen,1_1_0_1_54,2021-04-25T15:22:57.101Z,,,,,,,,,,,,,,,,53,,,,,,,,,,,,,,-1007,,response,,,,99,,,,,,,Space,keypress(Space),,,,,,,,---- -- ----- -- ------ - ------- --- ----------<br>------------- ------ ------ ---- ---- ------- ----- -- ----<br>-------- ------- -- ---------- --- - --- ----- ----- ----<br>---- --- --- ----- --- ---- ---- ------- ----- ---- -------<br>--- --- -- ----- -- --- ---- -- --- ---- -- ------ ------<br>--- ----- at ----,122874.00000000001,121580,122587,122573.00000000001,122603,122906,,54,at
screen,html.Screen,1_1_0_1_55,2021-04-25T15:22:57.401Z,,,,,,,,,,,,,,,,53,,,,,,,,,,,,,,-1011,,response,,,,99,,,,,,,Space,keypress(Space),,,,,,,,---- -- ----- -- ------ - ------- --- ----------<br>------------- ------ ------ ---- ---- ------- ----- -- ----<br>-------- ------- -- ---------- --- - --- ----- ----- ----<br>---- --- --- ----- --- ---- ---- ------- ----- ---- -------<br>--- --- -- ----- -- --- ---- -- --- ---- -- ------ ------<br>--- ----- -- all.,123174,121879,122890,122874.00000000001,122906,123209,,55,all.
Item 99,flow.Loop,1_1_0_1,2021-04-25T15:22:57.402Z,,,,,,,,,,,,,,,,,,,,,,,,,,,,,,17351,,completion,,,,,B,,,,,,,,,,,silence,,,,,123175,121879,104511,104512,104528,123209,,,
Question 1,html.Screen,1_1_0_2,2021-04-25T15:23:02.461Z,,,,,,,,,,,,,,,,,,,,,,,,,,,false,FALSE,,3747,,response,,,,99,B,,,,,,TRUE,click #choice-1,,,,silence,,,,,128234.00000000001,126939,123192,123175,123209,128260,,,
Question 2,html.Screen,1_1_0_3,2021-04-25T15:23:07.069Z,,,,,,,,,,,,,,,,,,,,,,,,,,,true,TRUE,,3306,,response,,,,99,B,,,,,,TRUE,click #choice-1,,,,silence,,,,,132842,131549,128243,128234.00000000001,128260,132881,,,
Item 99,flow.Sequence,1_1_0,2021-04-25T15:23:07.070Z,,,,,,,,,,,,,,,,,,,,,,,,,,,,,,37020,,completion,,,,,,,,,,,,,,,,,,,,,132843,131549,94511,94505,94529,132881,,,
Holding screen,html.Screen,1_1_1_0,2021-04-25T15:23:17.081Z,,,,,,,,,,,,,,,,,,,,,,,,,,,,,,9989,,timeout,,,,,,,,,,,,,,,,,,,,,142854,142854,132860,132843,132881,142870,,,
screen,html.Screen,1_1_1_1_0,2021-04-25T15:23:17.771Z,,,,,,,,,,,,,,,,54,,,,,,,,,,,,,,-605,,response,,,,100,,,,,,,Space,keypress(Space),,,,,,,,At --- ---- --- ------ ----- ------- ---- -- --- ------- --<br>------- ---------- ------ -- ----- -- ----- -- ---- ------<br>--- ----- --- --- ------ -------- ----- --- ------ ----- --<br>----- ----- ---------- --- --- ------ ------ ---- -- ------<br>------- --- ------ ----- --- ---- ------- -- ---- --- --<br>------- ------,143544,142249,142854,142854,142870,143573,,0,At
screen,html.Screen,1_1_1_1_1,2021-04-25T15:23:18.053Z,,,,,,,,,,,,,,,,54,,,,,,,,,,,,,,-1025,,response,,,,100,,,,,,,Space,keypress(Space),,,,,,,,-- the ---- --- ------ ----- ------- ---- -- --- ------- --<br>------- ---------- ------ -- ----- -- ----- -- ---- ------<br>--- ----- --- --- ------ -------- ----- --- ------ ----- --<br>----- ----- ---------- --- --- ------ ------ ---- -- ------<br>------- --- ------ ----- --- ---- ------- -- ---- --- --<br>------- ------,143825.00000000003,142531,143556,143544,143573,143857,,1,the
screen,html.Screen,1_1_1_1_2,2021-04-25T15:23:18.269Z,,,,,,,,,,,,,,,,54,,,,,,,,,,,,,,-1094,,response,,,,100,,,,,,,Space,keypress(Space),,,,,,,,-- --- time --- ------ ----- ------- ---- -- --- ------- --<br>------- ---------- ------ -- ----- -- ----- -- ---- ------<br>--- ----- --- --- ------ -------- ----- --- ------ ----- --<br>----- ----- ---------- --- --- ------ ------ ---- -- ------<br>------- --- ------ ----- --- ---- ------- -- ---- --- --<br>------- ------,144041,142747,143841,143825.00000000003,143857,144061,,2,time
screen,html.Screen,1_1_1_1_3,2021-04-25T15:23:18.507Z,,,,,,,,,,,,,,,,54,,,,,,,,,,,,,,-1059,,response,,,,100,,,,,,,Space,keypress(Space),,,,,,,,-- --- ---- the ------ ----- ------- ---- -- --- ------- --<br>------- ---------- ------ -- ----- -- ----- -- ---- ------<br>--- ----- --- --- ------ -------- ----- --- ------ ----- --<br>----- ----- ---------- --- --- ------ ------ ---- -- ------<br>------- --- ------ ----- --- ---- ------- -- ---- --- --<br>------- ------,144279,142985,144044,144041,144061,144298,,3,the
screen,html.Screen,1_1_1_1_4,2021-04-25T15:23:18.734Z,,,,,,,,,,,,,,,,54,,,,,,,,,,,,,,-1068,,response,,,,100,,,,,,,Space,keypress(Space),,,,,,,,-- --- ---- --- French ----- ------- ---- -- --- ------- --<br>------- ---------- ------ -- ----- -- ----- -- ---- ------<br>--- ----- --- --- ------ -------- ----- --- ------ ----- --<br>----- ----- ---------- --- --- ------ ------ ---- -- ------<br>------- --- ------ ----- --- ---- ------- -- ---- --- --<br>------- ------,144506,143212,144280,144279,144298,144534,,4,French
screen,html.Screen,1_1_1_1_5,2021-04-25T15:23:18.967Z,,,,,,,,,,,,,,,,54,,,,,,,,,,,,,,-1072,,response,,,,100,,,,,,,Space,keypress(Space),,,,,,,,-- --- ---- --- ------ crown ------- ---- -- --- ------- --<br>------- ---------- ------ -- ----- -- ----- -- ---- ------<br>--- ----- --- --- ------ -------- ----- --- ------ ----- --<br>----- ----- ---------- --- --- ------ ------ ---- -- ------<br>------- --- ------ ----- --- ---- ------- -- ---- --- --<br>------- ------,144739,143445,144517,144506,144534,144769,,5,crown
screen,html.Screen,1_1_1_1_6,2021-04-25T15:23:19.206Z,,,,,,,,,,,,,,,,54,,,,,,,,,,,,,,-1069,,response,,,,100,,,,,,,Space,keypress(Space),,,,,,,,-- --- ---- --- ------ ----- secured ---- -- --- ------- --<br>------- ---------- ------ -- ----- -- ----- -- ---- ------<br>--- ----- --- --- ------ -------- ----- --- ------ ----- --<br>----- ----- ---------- --- --- ------ ------ ---- -- ------<br>------- --- ------ ----- --- ---- ------- -- ---- --- --<br>------- ------,144979,143685,144754,144740,144769,145005,,6,secured
screen,html.Screen,1_1_1_1_7,2021-04-25T15:23:19.461Z,,,,,,,,,,,,,,,,54,,,,,,,,,,,,,,-1050,,response,,,,100,,,,,,,Space,keypress(Space),,,,,,,,-- --- ---- --- ------ ----- ------- much -- --- ------- --<br>------- ---------- ------ -- ----- -- ----- -- ---- ------<br>--- ----- --- --- ------ -------- ----- --- ------ ----- --<br>----- ----- ---------- --- --- ------ ------ ---- -- ------<br>------- --- ------ ----- --- ---- ------- -- ---- --- --<br>------- ------,145234,143939,144989,144979,145005,145259,,7,much
screen,html.Screen,1_1_1_1_8,2021-04-25T15:23:19.694Z,,,,,,,,,,,,,,,,54,,,,,,,,,,,,,,-1070,,response,,,,100,,,,,,,Space,keypress(Space),,,,,,,,-- --- ---- --- ------ ----- ------- ---- of --- ------- --<br>------- ---------- ------ -- ----- -- ----- -- ---- ------<br>--- ----- --- --- ------ -------- ----- --- ------ ----- --<br>----- ----- ---------- --- --- ------ ------ ---- -- ------<br>------- --- ------ ----- --- ---- ------- -- ---- --- --<br>------- ------,145466,144172,145242,145234,145259,145495,,8,of
screen,html.Screen,1_1_1_1_9,2021-04-25T15:23:20.115Z,,,,,,,,,,,,,,,,54,,,,,,,,,,,,,,-885,,response,,,,100,,,,,,,Space,keypress(Space),,,,,,,,-- --- ---- --- ------ ----- ------- ---- -- its ------- --<br>------- ---------- ------ -- ----- -- ----- -- ---- ------<br>--- ----- --- --- ------ -------- ----- --- ------ ----- --<br>----- ----- ---------- --- --- ------ ------ ---- -- ------<br>------- --- ------ ----- --- ---- ------- -- ---- --- --<br>------- ------,145887,144593,145478,145466,145495,145930,,9,its
screen,html.Screen,1_1_1_1_10,2021-04-25T15:23:20.355Z,,,,,,,,,,,,,,,,54,,,,,,,,,,,,,,-1079,,response,,,,100,,,,,,,Space,keypress(Space),,,,,,,,-- --- ---- --- ------ ----- ------- ---- -- --- revenue --<br>------- ---------- ------ -- ----- -- ----- -- ---- ------<br>--- ----- --- --- ------ -------- ----- --- ------ ----- --<br>----- ----- ---------- --- --- ------ ------ ---- -- ------<br>------- --- ------ ----- --- ---- ------- -- ---- --- --<br>------- ------,146128,144834,145913,145887,145930,146149,,10,revenue
screen,html.Screen,1_1_1_1_11,2021-04-25T15:23:20.596Z,,,,,,,,,,,,,,,,54,,,,,,,,,,,,,,-1059,,response,,,,100,,,,,,,Space,keypress(Space),,,,,,,,-- --- ---- --- ------ ----- ------- ---- -- --- ------- by<br>------- ---------- ------ -- ----- -- ----- -- ---- ------<br>--- ----- --- --- ------ -------- ----- --- ------ ----- --<br>----- ----- ---------- --- --- ------ ------ ---- -- ------<br>------- --- ------ ----- --- ---- ------- -- ---- --- --<br>------- ------,146368,145074,146133,146128,146149,146386,,11,by
screen,html.Screen,1_1_1_1_12,2021-04-25T15:23:20.868Z,,,,,,,,,,,,,,,,54,,,,,,,,,,,,,,-1022,,response,,,,100,,,,,,,Space,keypress(Space),,,,,,,,-- --- ---- --- ------ ----- ------- ---- -- --- ------- --<br>issuing ---------- ------ -- ----- -- ----- -- ---- ------<br>--- ----- --- --- ------ -------- ----- --- ------ ----- --<br>----- ----- ---------- --- --- ------ ------ ---- -- ------<br>------- --- ------ ----- --- ---- ------- -- ---- --- --<br>------- ------,146641,145347,146369,146368,146386,146673,,12,issuing
screen,html.Screen,1_1_1_1_13,2021-04-25T15:23:21.120Z,,,,,,,,,,,,,,,,54,,,,,,,,,,,,,,-1058,,response,,,,100,,,,,,,Space,keypress(Space),,,,,,,,-- --- ---- --- ------ ----- ------- ---- -- --- ------- --<br>------- government ------ -- ----- -- ----- -- ---- ------<br>--- ----- --- --- ------ -------- ----- --- ------ ----- --<br>----- ----- ---------- --- --- ------ ------ ---- -- ------<br>------- --- ------ ----- --- ---- ------- -- ---- --- --<br>------- ------,146892,145598,146656,146641,146673,146926,,13,government
screen,html.Screen,1_1_1_1_14,2021-04-25T15:23:21.348Z,,,,,,,,,,,,,,,,54,,,,,,,,,,,,,,-1082,,response,,,,100,,,,,,,Space,keypress(Space),,,,,,,,-- --- ---- --- ------ ----- ------- ---- -- --- ------- --<br>------- ---------- bonds. -- ----- -- ----- -- ---- ------<br>--- ----- --- --- ------ -------- ----- --- ------ ----- --<br>----- ----- ---------- --- --- ------ ------ ---- -- ------<br>------- --- ------ ----- --- ---- ------- -- ---- --- --<br>------- ------,147121,145827,146909,146892,146926,147145,,14,bonds.
screen,html.Screen,1_1_1_1_15,2021-04-25T15:23:21.601Z,,,,,,,,,,,,,,,,54,,,,,,,,,,,,,,-1050,,response,,,,100,,,,,,,Space,keypress(Space),,,,,,,,-- --- ---- --- ------ ----- ------- ---- -- --- ------- --<br>------- ---------- ------ In ----- -- ----- -- ---- ------<br>--- ----- --- --- ------ -------- ----- --- ------ ----- --<br>----- ----- ---------- --- --- ------ ------ ---- -- ------<br>------- --- ------ ----- --- ---- ------- -- ---- --- --<br>------- ------,147373,146079,147129,147121,147145,147398,,15,In
screen,html.Screen,1_1_1_1_16,2021-04-25T15:23:21.852Z,,,,,,,,,,,,,,,,54,,,,,,,,,,,,,,-1052,,response,,,,100,,,,,,,Space,keypress(Space),,,,,,,,"-- --- ---- --- ------ ----- ------- ---- -- --- ------- --<br>------- ---------- ------ -- 1727, -- ----- -- ---- ------<br>--- ----- --- --- ------ -------- ----- --- ------ ----- --<br>----- ----- ---------- --- --- ------ ------ ---- -- ------<br>------- --- ------ ----- --- ---- ------- -- ---- --- --<br>------- ------",147624,146330,147382,147373,147398,147651,,16,"1727,"
screen,html.Screen,1_1_1_1_17,2021-04-25T15:23:22.097Z,,,,,,,,,,,,,,,,54,,,,,,,,,,,,,,-1058.999999999971,,response,,,,100,,,,,,,Space,keypress(Space),,,,,,,,-- --- ---- --- ------ ----- ------- ---- -- --- ------- --<br>------- ---------- ------ -- ----- in ----- -- ---- ------<br>--- ----- --- --- ------ -------- ----- --- ------ ----- --<br>----- ----- ---------- --- --- ------ ------ ---- -- ------<br>------- --- ------ ----- --- ---- ------- -- ---- --- --<br>------- ------,147869,146575.00000000003,147634,147624,147651,147904,,17,in
screen,html.Screen,1_1_1_1_18,2021-04-25T15:23:22.371Z,,,,,,,,,,,,,,,,54,,,,,,,,,,,,,,-1037,,response,,,,100,,,,,,,Space,keypress(Space),,,,,,,,-- --- ---- --- ------ ----- ------- ---- -- --- ------- --<br>------- ---------- ------ -- ----- -- order -- ---- ------<br>--- ----- --- --- ------ -------- ----- --- ------ ----- --<br>----- ----- ---------- --- --- ------ ------ ---- -- ------<br>------- --- ------ ----- --- ---- ------- -- ---- --- --<br>------- ------,148144,146850,147887,147870,147904,148173,,18,order
screen,html.Screen,1_1_1_1_19,2021-04-25T15:23:22.589Z,,,,,,,,,,,,,,,,54,,,,,,,,,,,,,,-1088,,response,,,,100,,,,,,,Space,keypress(Space),,,,,,,,-- --- ---- --- ------ ----- ------- ---- -- --- ------- --<br>------- ---------- ------ -- ----- -- ----- to ---- ------<br>--- ----- --- --- ------ -------- ----- --- ------ ----- --<br>----- ----- ---------- --- --- ------ ------ ---- -- ------<br>------- --- ------ ----- --- ---- ------- -- ---- --- --<br>------- ------,148362,147068,148156,148144,148173,148392,,19,to
screen,html.Screen,1_1_1_1_20,2021-04-25T15:23:22.845Z,,,,,,,,,,,,,,,,54,,,,,,,,,,,,,,-1053,,response,,,,100,,,,,,,Space,keypress(Space),,,,,,,,-- --- ---- --- ------ ----- ------- ---- -- --- ------- --<br>------- ---------- ------ -- ----- -- ----- -- save ------<br>--- ----- --- --- ------ -------- ----- --- ------ ----- --<br>----- ----- ---------- --- --- ------ ------ ---- -- ------<br>------- --- ------ ----- --- ---- ------- -- ---- --- --<br>------- ------,148617,147323,148376,148362,148392,148646,,20,save
screen,html.Screen,1_1_1_1_21,2021-04-25T15:23:23.094Z,,,,,,,,,,,,,,,,54,,,,,,,,,,,,,,-1056,,response,,,,100,,,,,,,Space,keypress(Space),,,,,,,,"-- --- ---- --- ------ ----- ------- ---- -- --- ------- --<br>------- ---------- ------ -- ----- -- ----- -- ---- money,<br>--- ----- --- --- ------ -------- ----- --- ------ ----- --<br>----- ----- ---------- --- --- ------ ------ ---- -- ------<br>------- --- ------ ----- --- ---- ------- -- ---- --- --<br>------- ------",148867,147573,148629,148617,148646,148897,,21,"money,"
screen,html.Screen,1_1_1_1_22,2021-04-25T15:23:23.359Z,,,,,,,,,,,,,,,,54,,,,,,,,,,,,,,-1044,,response,,,,100,,,,,,,Space,keypress(Space),,,,,,,,-- --- ---- --- ------ ----- ------- ---- -- --- ------- --<br>------- ---------- ------ -- ----- -- ----- -- ---- ------<br>the ----- --- --- ------ -------- ----- --- ------ ----- --<br>----- ----- ---------- --- --- ------ ------ ---- -- ------<br>------- --- ------ ----- --- ---- ------- -- ---- --- --<br>------- ------,149132,147838,148882,148867,148897,149151,,22,the
screen,html.Screen,1_1_1_1_23,2021-04-25T15:23:23.622Z,,,,,,,,,,,,,,,,54,,,,,,,,,,,,,,-1034,,response,,,,100,,,,,,,Space,keypress(Space),,,,,,,,-- --- ---- --- ------ ----- ------- ---- -- --- ------- --<br>------- ---------- ------ -- ----- -- ----- -- ---- ------<br>--- state --- --- ------ -------- ----- --- ------ ----- --<br>----- ----- ---------- --- --- ------ ------ ---- -- ------<br>------- --- ------ ----- --- ---- ------- -- ---- --- --<br>------- ------,149394,148100,149134,149132,149151,149421,,23,state
screen,html.Screen,1_1_1_1_24,2021-04-25T15:23:23.871Z,,,,,,,,,,,,,,,,54,,,,,,,,,,,,,,-1054,,response,,,,100,,,,,,,Space,keypress(Space),,,,,,,,-- --- ---- --- ------ ----- ------- ---- -- --- ------- --<br>------- ---------- ------ -- ----- -- ----- -- ---- ------<br>--- ----- cut --- ------ -------- ----- --- ------ ----- --<br>----- ----- ---------- --- --- ------ ------ ---- -- ------<br>------- --- ------ ----- --- ---- ------- -- ---- --- --<br>------- ------,149644,148350,149404,149394,149421,149673,,24,cut
screen,html.Screen,1_1_1_1_25,2021-04-25T15:23:24.123Z,,,,,,,,,,,,,,,,54,,,,,,,,,,,,,,-1055,,response,,,,100,,,,,,,Space,keypress(Space),,,,,,,,-- --- ---- --- ------ ----- ------- ---- -- --- ------- --<br>------- ---------- ------ -- ----- -- ----- -- ---- ------<br>--- ----- --- the ------ -------- ----- --- ------ ----- --<br>----- ----- ---------- --- --- ------ ------ ---- -- ------<br>------- --- ------ ----- --- ---- ------- -- ---- --- --<br>------- ------,149896.00000000003,148602,149657,149644,149673,149925,,25,the
screen,html.Screen,1_1_1_1_26,2021-04-25T15:23:24.355Z,,,,,,,,,,,,,,,,54,,,,,,,,,,,,,,-1075,,response,,,,100,,,,,,,Space,keypress(Space),,,,,,,,-- --- ---- --- ------ ----- ------- ---- -- --- ------- --<br>------- ---------- ------ -- ----- -- ----- -- ---- ------<br>--- ----- --- --- bonds' -------- ----- --- ------ ----- --<br>----- ----- ---------- --- --- ------ ------ ---- -- ------<br>------- --- ------ ----- --- ---- ------- -- ---- --- --<br>------- ------,150128,148834,149909,149896.00000000003,149925,150161,,26,bonds'
screen,html.Screen,1_1_1_1_27,2021-04-25T15:23:24.602Z,,,,,,,,,,,,,,,,54,,,,,,,,,,,,,,-1063.999999999971,,response,,,,100,,,,,,,Space,keypress(Space),,,,,,,,-- --- ---- --- ------ ----- ------- ---- -- --- ------- --<br>------- ---------- ------ -- ----- -- ----- -- ---- ------<br>--- ----- --- --- ------ interest ----- --- ------ ----- --<br>----- ----- ---------- --- --- ------ ------ ---- -- ------<br>------- --- ------ ----- --- ---- ------- -- ---- --- --<br>------- ------,150375,149081.00000000003,150145,150128,150161,150397,,27,interest
screen,html.Screen,1_1_1_1_28,2021-04-25T15:23:24.850Z,,,,,,,,,,,,,,,,54,,,,,,,,,,,,,,-1054,,response,,,,100,,,,,,,Space,keypress(Space),,,,,,,,-- --- ---- --- ------ ----- ------- ---- -- --- ------- --<br>------- ---------- ------ -- ----- -- ----- -- ---- ------<br>--- ----- --- --- ------ -------- rate. --- ------ ----- --<br>----- ----- ---------- --- --- ------ ------ ---- -- ------<br>------- --- ------ ----- --- ---- ------- -- ---- --- --<br>------- ------,150622,149328,150382,150375,150397,150650,,28,rate.
screen,html.Screen,1_1_1_1_29,2021-04-25T15:23:25.084Z,,,,,,,,,,,,,,,,54,,,,,,,,,,,,,,-1070.999999999971,,response,,,,100,,,,,,,Space,keypress(Space),,,,,,,,-- --- ---- --- ------ ----- ------- ---- -- --- ------- --<br>------- ---------- ------ -- ----- -- ----- -- ---- ------<br>--- ----- --- --- ------ -------- ----- The ------ ----- --<br>----- ----- ---------- --- --- ------ ------ ---- -- ------<br>------- --- ------ ----- --- ---- ------- -- ---- --- --<br>------- ------,150857,149563.00000000003,150634,150622,150650,150887,,29,The
screen,html.Screen,1_1_1_1_30,2021-04-25T15:23:25.351Z,,,,,,,,,,,,,,,,54,,,,,,,,,,,,,,-1040,,response,,,,100,,,,,,,Space,keypress(Space),,,,,,,,-- --- ---- --- ------ ----- ------- ---- -- --- ------- --<br>------- ---------- ------ -- ----- -- ----- -- ---- ------<br>--- ----- --- --- ------ -------- ----- --- market ----- --<br>----- ----- ---------- --- --- ------ ------ ---- -- ------<br>------- --- ------ ----- --- ---- ------- -- ---- --- --<br>------- ------,151124,149830,150870,150857,150887,151156,,30,market
screen,html.Screen,1_1_1_1_31,2021-04-25T15:23:25.590Z,,,,,,,,,,,,,,,,54,,,,,,,,,,,,,,-1070.999999999971,,response,,,,100,,,,,,,Space,keypress(Space),,,,,,,,-- --- ---- --- ------ ----- ------- ---- -- --- ------- --<br>------- ---------- ------ -- ----- -- ----- -- ---- ------<br>--- ----- --- --- ------ -------- ----- --- ------ value --<br>----- ----- ---------- --- --- ------ ------ ---- -- ------<br>------- --- ------ ----- --- ---- ------- -- ---- --- --<br>------- ------,151363,150069.00000000003,151140,151124,151156,151391,,31,value
screen,html.Screen,1_1_1_1_32,2021-04-25T15:23:25.848Z,,,,,,,,,,,,,,,,54,,,,,,,,,,,,,,-1050,,response,,,,100,,,,,,,Space,keypress(Space),,,,,,,,-- --- ---- --- ------ ----- ------- ---- -- --- ------- --<br>------- ---------- ------ -- ----- -- ----- -- ---- ------<br>--- ----- --- --- ------ -------- ----- --- ------ ----- of<br>----- ----- ---------- --- --- ------ ------ ---- -- ------<br>------- --- ------ ----- --- ---- ------- -- ---- --- --<br>------- ------,151620,150326,151376,151363,151391,151645,,32,of
screen,html.Screen,1_1_1_1_33,2021-04-25T15:23:26.093Z,,,,,,,,,,,,,,,,54,,,,,,,,,,,,,,-1055,,response,,,,100,,,,,,,Space,keypress(Space),,,,,,,,-- --- ---- --- ------ ----- ------- ---- -- --- ------- --<br>------- ---------- ------ -- ----- -- ----- -- ---- ------<br>--- ----- --- --- ------ -------- ----- --- ------ ----- --<br>these ----- ---------- --- --- ------ ------ ---- -- ------<br>------- --- ------ ----- --- ---- ------- -- ---- --- --<br>------- ------,151866,150572,151627,151620,151645,151898,,33,these
screen,html.Screen,1_1_1_1_34,2021-04-25T15:23:26.337Z,,,,,,,,,,,,,,,,54,,,,,,,,,,,,,,-1067,,response,,,,100,,,,,,,Space,keypress(Space),,,,,,,,-- --- ---- --- ------ ----- ------- ---- -- --- ------- --<br>------- ---------- ------ -- ----- -- ----- -- ---- ------<br>--- ----- --- --- ------ -------- ----- --- ------ ----- --<br>----- bonds ---------- --- --- ------ ------ ---- -- ------<br>------- --- ------ ----- --- ---- ------- -- ---- --- --<br>------- ------,152109,150815,151882,151866,151898,152134,,34,bonds
screen,html.Screen,1_1_1_1_35,2021-04-25T15:23:26.577Z,,,,,,,,,,,,,,,,54,,,,,,,,,,,,,,-1063,,response,,,,100,,,,,,,Space,keypress(Space),,,,,,,,"-- --- ---- --- ------ ----- ------- ---- -- --- ------- --<br>------- ---------- ------ -- ----- -- ----- -- ---- ------<br>--- ----- --- --- ------ -------- ----- --- ------ ----- --<br>----- ----- plummeted, --- --- ------ ------ ---- -- ------<br>------- --- ------ ----- --- ---- ------- -- ---- --- --<br>------- ------",152349,151055,152118,152109,152134,152372,,35,"plummeted,"
screen,html.Screen,1_1_1_1_36,2021-04-25T15:23:26.813Z,,,,,,,,,,,,,,,,54,,,,,,,,,,,,,,-1061,,response,,,,100,,,,,,,Space,keypress(Space),,,,,,,,-- --- ---- --- ------ ----- ------- ---- -- --- ------- --<br>------- ---------- ------ -- ----- -- ----- -- ---- ------<br>--- ----- --- --- ------ -------- ----- --- ------ ----- --<br>----- ----- ---------- and --- ------ ------ ---- -- ------<br>------- --- ------ ----- --- ---- ------- -- ---- --- --<br>------- ------,152586,151292,152353,152349,152372,152606,,36,and
screen,html.Screen,1_1_1_1_37,2021-04-25T15:23:27.056Z,,,,,,,,,,,,,,,,54,,,,,,,,,,,,,,-1054,,response,,,,100,,,,,,,Space,keypress(Space),,,,,,,,-- --- ---- --- ------ ----- ------- ---- -- --- ------- --<br>------- ---------- ------ -- ----- -- ----- -- ---- ------<br>--- ----- --- --- ------ -------- ----- --- ------ ----- --<br>----- ----- ---------- --- the ------ ------ ---- -- ------<br>------- --- ------ ----- --- ---- ------- -- ---- --- --<br>------- ------,152829,151535,152589,152586,152606,152859,,37,the
screen,html.Screen,1_1_1_1_38,2021-04-25T15:23:27.300Z,,,,,,,,,,,,,,,,54,,,,,,,,,,,,,,-1064,,response,,,,100,,,,,,,Space,keypress(Space),,,,,,,,-- --- ---- --- ------ ----- ------- ---- -- --- ------- --<br>------- ---------- ------ -- ----- -- ----- -- ---- ------<br>--- ----- --- --- ------ -------- ----- --- ------ ----- --<br>----- ----- ---------- --- --- market ------ ---- -- ------<br>------- --- ------ ----- --- ---- ------- -- ---- --- --<br>------- ------,153073,151779,152843,152829,152859,153096,,38,market
screen,html.Screen,1_1_1_1_39,2021-04-25T15:23:27.555Z,,,,,,,,,,,,,,,,54,,,,,,,,,,,,,,-1045,,response,,,,100,,,,,,,Space,keypress(Space),,,,,,,,-- --- ---- --- ------ ----- ------- ---- -- --- ------- --<br>------- ---------- ------ -- ----- -- ----- -- ---- ------<br>--- ----- --- --- ------ -------- ----- --- ------ ----- --<br>----- ----- ---------- --- --- ------ became ---- -- ------<br>------- --- ------ ----- --- ---- ------- -- ---- --- --<br>------- ------,153328,152034,153079,153073,153096,153348,,39,became
screen,html.Screen,1_1_1_1_40,2021-04-25T15:23:27.782Z,,,,,,,,,,,,,,,,54,,,,,,,,,,,,,,-1071,,response,,,,100,,,,,,,Space,keypress(Space),,,,,,,,-- --- ---- --- ------ ----- ------- ---- -- --- ------- --<br>------- ---------- ------ -- ----- -- ----- -- ---- ------<br>--- ----- --- --- ------ -------- ----- --- ------ ----- --<br>----- ----- ---------- --- --- ------ ------ wary -- ------<br>------- --- ------ ----- --- ---- ------- -- ---- --- --<br>------- ------,153555,152261,153332,153328,153348,153584,,40,wary
screen,html.Screen,1_1_1_1_41,2021-04-25T15:23:27.989Z,,,,,,,,,,,,,,,,54,,,,,,,,,,,,,,-1099,,response,,,,100,,,,,,,Space,keypress(Space),,,,,,,,-- --- ---- --- ------ ----- ------- ---- -- --- ------- --<br>------- ---------- ------ -- ----- -- ----- -- ---- ------<br>--- ----- --- --- ------ -------- ----- --- ------ ----- --<br>----- ----- ---------- --- --- ------ ------ ---- of ------<br>------- --- ------ ----- --- ---- ------- -- ---- --- --<br>------- ------,153762,152468,153567,153555,153584,153787,,41,of
screen,html.Screen,1_1_1_1_42,2021-04-25T15:23:28.166Z,,,,,,,,,,,,,,,,54,,,,,,,,,,,,,,-1126,,response,,,,100,,,,,,,Space,keypress(Space),,,,,,,,-- --- ---- --- ------ ----- ------- ---- -- --- ------- --<br>------- ---------- ------ -- ----- -- ----- -- ---- ------<br>--- ----- --- --- ------ -------- ----- --- ------ ----- --<br>----- ----- ---------- --- --- ------ ------ ---- -- French<br>------- --- ------ ----- --- ---- ------- -- ---- --- --<br>------- ------,153939,152644,153770,153762,153787,153973,,42,French
screen,html.Screen,1_1_1_1_43,2021-04-25T15:23:28.357Z,,,,,,,,,,,,,,,,54,,,,,,,,,,,,,,-1120,,response,,,,100,,,,,,,Space,keypress(Space),,,,,,,,-- --- ---- --- ------ ----- ------- ---- -- --- ------- --<br>------- ---------- ------ -- ----- -- ----- -- ---- ------<br>--- ----- --- --- ------ -------- ----- --- ------ ----- --<br>----- ----- ---------- --- --- ------ ------ ---- -- ------<br>credit. --- ------ ----- --- ---- ------- -- ---- --- --<br>------- ------,154130,152836,153956,153939,153973,154159,,43,credit.
screen,html.Screen,1_1_1_1_44,2021-04-25T15:23:28.603Z,,,,,,,,,,,,,,,,54,,,,,,,,,,,,,,-1061,,response,,,,100,,,,,,,Space,keypress(Space),,,,,,,,-- --- ---- --- ------ ----- ------- ---- -- --- ------- --<br>------- ---------- ------ -- ----- -- ----- -- ---- ------<br>--- ----- --- --- ------ -------- ----- --- ------ ----- --<br>----- ----- ---------- --- --- ------ ------ ---- -- ------<br>------- The ------ ----- --- ---- ------- -- ---- --- --<br>------- ------,154376,153082,154143,154130,154159,154396,,44,The
screen,html.Screen,1_1_1_1_45,2021-04-25T15:23:28.748Z,,,,,,,,,,,,,,,,54,,,,,,,,,,,,,,-1153,,response,,,,100,,,,,,,Space,keypress(Space),,,,,,,,-- --- ---- --- ------ ----- ------- ---- -- --- ------- --<br>------- ---------- ------ -- ----- -- ----- -- ---- ------<br>--- ----- --- --- ------ -------- ----- --- ------ ----- --<br>----- ----- ---------- --- --- ------ ------ ---- -- ------<br>------- --- French ----- --- ---- ------- -- ---- --- --<br>------- ------,154520,153226,154379,154376,154396,154548,,45,French
screen,html.Screen,1_1_1_1_46,2021-04-25T15:23:29.030Z,,,,,,,,,,,,,,,,54,,,,,,,,,,,,,,-1023,,response,,,,100,,,,,,,Space,keypress(Space),,,,,,,,-- --- ---- --- ------ ----- ------- ---- -- --- ------- --<br>------- ---------- ------ -- ----- -- ----- -- ---- ------<br>--- ----- --- --- ------ -------- ----- --- ------ ----- --<br>----- ----- ---------- --- --- ------ ------ ---- -- ------<br>------- --- ------ state --- ---- ------- -- ---- --- --<br>------- ------,154803,153509,154532,154520,154548,154835,,46,state
screen,html.Screen,1_1_1_1_47,2021-04-25T15:23:29.355Z,,,,,,,,,,,,,,,,54,,,,,,,,,,,,,,-984,,response,,,,100,,,,,,,Space,keypress(Space),,,,,,,,-- --- ---- --- ------ ----- ------- ---- -- --- ------- --<br>------- ---------- ------ -- ----- -- ----- -- ---- ------<br>--- ----- --- --- ------ -------- ----- --- ------ ----- --<br>----- ----- ---------- --- --- ------ ------ ---- -- ------<br>------- --- ------ ----- was ---- ------- -- ---- --- --<br>------- ------,155128,153834,154818,154803,154835,155154,,47,was
screen,html.Screen,1_1_1_1_48,2021-04-25T15:23:29.619Z,,,,,,,,,,,,,,,,54,,,,,,,,,,,,,,-1039,,response,,,,100,,,,,,,Space,keypress(Space),,,,,,,,-- --- ---- --- ------ ----- ------- ---- -- --- ------- --<br>------- ---------- ------ -- ----- -- ----- -- ---- ------<br>--- ----- --- --- ------ -------- ----- --- ------ ----- --<br>----- ----- ---------- --- --- ------ ------ ---- -- ------<br>------- --- ------ ----- --- left ------- -- ---- --- --<br>------- ------,155392,154098,155137,155128,155154,155423,,48,left
screen,html.Screen,1_1_1_1_49,2021-04-25T15:23:29.852Z,,,,,,,,,,,,,,,,54,,,,,,,,,,,,,,-1074.999999999971,,response,,,,100,,,,,,,Space,keypress(Space),,,,,,,,-- --- ---- --- ------ ----- ------- ---- -- --- ------- --<br>------- ---------- ------ -- ----- -- ----- -- ---- ------<br>--- ----- --- --- ------ -------- ----- --- ------ ----- --<br>----- ----- ---------- --- --- ------ ------ ---- -- ------<br>------- --- ------ ----- --- ---- without -- ---- --- --<br>------- ------,155625,154331.00000000003,155406,155392,155423,155642,,49,without
screen,html.Screen,1_1_1_1_50,2021-04-25T15:23:30.070Z,,,,,,,,,,,,,,,,54,,,,,,,,,,,,,,-1078,,response,,,,100,,,,,,,Space,keypress(Space),,,,,,,,-- --- ---- --- ------ ----- ------- ---- -- --- ------- --<br>------- ---------- ------ -- ----- -- ----- -- ---- ------<br>--- ----- --- --- ------ -------- ----- --- ------ ----- --<br>----- ----- ---------- --- --- ------ ------ ---- -- ------<br>------- --- ------ ----- --- ---- ------- an ---- --- --<br>------- ------,155843,154548,155626,155625,155642,155862,,50,an
screen,html.Screen,1_1_1_1_51,2021-04-25T15:23:30.291Z,,,,,,,,,,,,,,,,54,,,,,,,,,,,,,,-1076,,response,,,,100,,,,,,,Space,keypress(Space),,,,,,,,-- --- ---- --- ------ ----- ------- ---- -- --- ------- --<br>------- ---------- ------ -- ----- -- ----- -- ---- ------<br>--- ----- --- --- ------ -------- ----- --- ------ ----- --<br>----- ----- ---------- --- --- ------ ------ ---- -- ------<br>------- --- ------ ----- --- ---- ------- -- easy --- --<br>------- ------,156064,154769,155845,155843,155862,156098,,51,easy
screen,html.Screen,1_1_1_1_52,2021-04-25T15:23:30.695Z,,,,,,,,,,,,,,,,54,,,,,,,,,,,,,,-908,,response,,,,100,,,,,,,Space,keypress(Space),,,,,,,,-- --- ---- --- ------ ----- ------- ---- -- --- ------- --<br>------- ---------- ------ -- ----- -- ----- -- ---- ------<br>--- ----- --- --- ------ -------- ----- --- ------ ----- --<br>----- ----- ---------- --- --- ------ ------ ---- -- ------<br>------- --- ------ ----- --- ---- ------- -- ---- way --<br>------- ------,156468,155174,156082,156064,156098,156501,,52,way
screen,html.Screen,1_1_1_1_53,2021-04-25T15:23:30.909Z,,,,,,,,,,,,,,,,54,,,,,,,,,,,,,,-1097,,response,,,,100,,,,,,,Space,keypress(Space),,,,,,,,-- --- ---- --- ------ ----- ------- ---- -- --- ------- --<br>------- ---------- ------ -- ----- -- ----- -- ---- ------<br>--- ----- --- --- ------ -------- ----- --- ------ ----- --<br>----- ----- ---------- --- --- ------ ------ ---- -- ------<br>------- --- ------ ----- --- ---- ------- -- ---- --- of<br>------- ------,156681,155387,156484,156468,156501,156703,,53,of
screen,html.Screen,1_1_1_1_54,2021-04-25T15:23:31.169Z,,,,,,,,,,,,,,,,54,,,,,,,,,,,,,,-1039,,response,,,,100,,,,,,,Space,keypress(Space),,,,,,,,-- --- ---- --- ------ ----- ------- ---- -- --- ------- --<br>------- ---------- ------ -- ----- -- ----- -- ---- ------<br>--- ----- --- --- ------ -------- ----- --- ------ ----- --<br>----- ----- ---------- --- --- ------ ------ ---- -- ------<br>------- --- ------ ----- --- ---- ------- -- ---- --- --<br>raising ------,156941,155648,156687,156681,156703,156973,,54,raising
screen,html.Screen,1_1_1_1_55,2021-04-25T15:23:31.548Z,,,,,,,,,,,,,,,,54,,,,,,,,,,,,,,-928.9999999999709,,response,,,,100,,,,,,,Space,keypress(Space),,,,,,,,-- --- ---- --- ------ ----- ------- ---- -- --- ------- --<br>------- ---------- ------ -- ----- -- ----- -- ---- ------<br>--- ----- --- --- ------ -------- ----- --- ------ ----- --<br>----- ----- ---------- --- --- ------ ------ ---- -- ------<br>------- --- ------ ----- --- ---- ------- -- ---- --- --<br>------- money.,157321,156027.00000000003,156956,156942,156973,157342,,55,money.
Item 100,flow.Loop,1_1_1_1,2021-04-25T15:23:31.549Z,,,,,,,,,,,,,,,,,,,,,,,,,,,,,,13157.00000000003,,completion,,,,,B,,,,,,,,,,,silence,,,,,157321,156027.00000000003,142854,142854,142870,157342,,,
Question 1,html.Screen,1_1_1_2,2021-04-25T15:23:33.690Z,,,,,,,,,,,,,,,,,,,,,,,,,,,true,TRUE,,842,,response,,,,100,B,,,,,,TRUE,click #choice-1,,,,silence,,,,,159463,158168,157326,157321,157342,159500,,,
Question 2,html.Screen,1_1_1_3,2021-04-25T15:23:35.740Z,,,,,,,,,,,,,,,,,,,,,,,,,,,true,FALSE,,737,,response,,,,100,B,,,,,,FALSE,click #choice-2,,,,silence,,,,,161513,160220,159483,159463,159500,161542,,,
Item 100,flow.Sequence,1_1_1,2021-04-25T15:23:35.740Z,,,,,,,,,,,,,,,,,,,,,,,,,,,,,,27339,,completion,,,,,,,,,,,,,,,,,,,,,161513,160220,132860,132843,132881,161542,,,
End of Practice,html.Page,1_1_2,2021-04-25T15:23:37.695Z,,,,,,,,,,,,,,,,,,,,,,,,,,,,,,1926,,form submission,,,,,,,,,,,,,,,,,,,,,163468,163468,161525,161513,161542,163499,,,
Practice,flow.Sequence,1_1,2021-04-25T15:23:37.696Z,,,,,,,,,,,,,,,,,,,,,,,,,,,,,,68939,,completion,,,,,,,,,,,,,,,,,,,,,163468,163468,94511,94505,94529,163499,,,
Trap_instruction,html.Page,1_2_0,2021-04-25T15:23:40.998Z,,,,,,,,,,,,,,,,,,,,,,,,,,,,,,3271,,form submission,,,,,,,,,,,,,,,,,,,,,166770,166770,163484,163468,163499,166806,,,
trap_trial,html.Screen,1_2_1,2021-04-25T15:23:43.879Z,,,,,,,,,,,,,,,,,,,,,,,,,,,true,1,,1568,,response,,,,,,,,,,,1,click #choice-1,,,,,,,,,169651,168358,166790,166771.00000000003,166806,169697,,,
end of trap trial,html.Page,1_2_2,2021-04-25T15:23:45.495Z,,,,,,,,,,,,,,,,,,,,,,,,,,,,,,1570,,form submission,,,,,,,,,,,,,,,,,,,,,171268,171267,169693,169651,169697,171287,,,
Trap 1,flow.Sequence,1_2,2021-04-25T15:23:45.495Z,,,,,,,,,,,,,,,,,,,,,,,,,,,,,,7768,,completion,,,,,,,,,,,,,,,,,,,,,171268,171267,163484,163468,163499,171287,,,
Standby,html.Page,1_3_0,2021-04-25T15:23:53.505Z,,,,,,,,,,,,,,,,,,,,,,,,,,,,,,8007,,timeout,,,,,,,,,,,,,,,,,,,,,179278,179277,171272,171268,171287,179294,,,
Holding screen,html.Screen,1_3_1_0_0,2021-04-25T15:24:00.512Z,,,,,,,,,,,,,,,,,,,,,,,,,,,,,,7007,,timeout,,,,,,,,,,,,,,,,,,,,,186284,186284,179277,179278,179294,186301,,,
screen,html.Screen,1_3_1_0_1_0,2021-04-25T15:24:01.565Z,,,,,,,,,,,,,,,,11,,,,,,,,,,,,,,-242,,response,,,,4,B,,,,,,Space,keypress(Space),,,,lyrical,,,,Known -- ---- --- -- --- -------- ------------ ---------- --<br>- ------- ------ --------- -- ------------ -- --- ---- -----<br>------ ---- ---- ------ ------ ------- --- ----- ---------<br>---- --- -------- -------- --- --- -- ------- --- --- -----<br>-- --- ------ ------- --- --- -------- ---- --------- --<br>---------- -- -------- ----------------,187337.00000000003,186042,186284,186284,186301,187369,,0,Known
screen,html.Screen,1_3_1_0_1_1,2021-04-25T15:24:01.780Z,,,,,,,,,,,,,,,,11,,,,,,,,,,,,,,-1096,,response,,,,4,B,,,,,,Space,keypress(Space),,,,lyrical,,,,----- as ---- --- -- --- -------- ------------ ---------- --<br>- ------- ------ --------- -- ------------ -- --- ---- -----<br>------ ---- ---- ------ ------ ------- --- ----- ---------<br>---- --- -------- -------- --- --- -- ------- --- --- -----<br>-- --- ------ ------- --- --- -------- ---- --------- --<br>---------- -- -------- ----------------,187553,186258,187354,187337.00000000003,187369,187584,,1,as
screen,html.Screen,1_3_1_0_1_2,2021-04-25T15:24:02.046Z,,,,,,,,,,,,,,,,11,,,,,,,,,,,,,,-1043,,response,,,,4,B,,,,,,Space,keypress(Space),,,,lyrical,,,,----- -- Rapa --- -- --- -------- ------------ ---------- --<br>- ------- ------ --------- -- ------------ -- --- ---- -----<br>------ ---- ---- ------ ------ ------- --- ----- ---------<br>---- --- -------- -------- --- --- -- ------- --- --- -----<br>-- --- ------ ------- --- --- -------- ---- --------- --<br>---------- -- -------- ----------------,187818,186524,187567,187553,187584,187838,,2,Rapa
screen,html.Screen,1_3_1_0_1_3,2021-04-25T15:24:02.394Z,,,,,,,,,,,,,,,,11,,,,,,,,,,,,,,-948,,response,,,,4,B,,,,,,Space,keypress(Space),,,,lyrical,,,,----- -- ---- Nui -- --- -------- ------------ ---------- --<br>- ------- ------ --------- -- ------------ -- --- ---- -----<br>------ ---- ---- ------ ------ ------- --- ----- ---------<br>---- --- -------- -------- --- --- -- ------- --- --- -----<br>-- --- ------ ------- --- --- -------- ---- --------- --<br>---------- -- -------- ----------------,188167,186872,187820,187819.00000000003,187838,188191,,3,Nui
screen,html.Screen,1_3_1_0_1_4,2021-04-25T15:24:02.716Z,,,,,,,,,,,,,,,,11,,,,,,,,,,,,,,-978.9999999999709,,response,,,,4,B,,,,,,Space,keypress(Space),,,,lyrical,,,,----- -- ---- --- to --- -------- ------------ ---------- --<br>- ------- ------ --------- -- ------------ -- --- ---- -----<br>------ ---- ---- ------ ------ ------- --- ----- ---------<br>---- --- -------- -------- --- --- -- ------- --- --- -----<br>-- --- ------ ------- --- --- -------- ---- --------- --<br>---------- -- -------- ----------------,188489,187194.00000000003,188173,188167,188191,188510,,4,to
screen,html.Screen,1_3_1_0_1_5,2021-04-25T15:24:03.022Z,,,,,,,,,,,,,,,,11,,,,,,,,,,,,,,-994,,response,,,,4,B,,,,,,Space,keypress(Space),,,,lyrical,,,,----- -- ---- --- -- the -------- ------------ ---------- --<br>- ------- ------ --------- -- ------------ -- --- ---- -----<br>------ ---- ---- ------ ------ ------- --- ----- ---------<br>---- --- -------- -------- --- --- -- ------- --- --- -----<br>-- --- ------ ------- --- --- -------- ---- --------- --<br>---------- -- -------- ----------------,188795.00000000003,187500,188494,188489,188510,188813,,5,the
screen,html.Screen,1_3_1_0_1_6,2021-04-25T15:24:03.300Z,,,,,,,,,,,,,,,,11,,,,,,,,,,,,,,-1018,,response,,,,4,B,,,,,,Space,keypress(Space),,,,lyrical,,,,----- -- ---- --- -- --- island's ------------ ---------- --<br>- ------- ------ --------- -- ------------ -- --- ---- -----<br>------ ---- ---- ------ ------ ------- --- ----- ---------<br>---- --- -------- -------- --- --- -- ------- --- --- -----<br>-- --- ------ ------- --- --- -------- ---- --------- --<br>---------- -- -------- ----------------,189073,187778,188796,188795.00000000003,188813,189099,,6,island's
screen,html.Screen,1_3_1_0_1_7,2021-04-25T15:24:03.607Z,,,,,,,,,,,,,,,,11,,,,,,,,,,,,,,-997,,response,,,,4,B,,,,,,Space,keypress(Space),,,,lyrical,,,,"----- -- ---- --- -- --- -------- inhabitants, ---------- --<br>- ------- ------ --------- -- ------------ -- --- ---- -----<br>------ ---- ---- ------ ------ ------- --- ----- ---------<br>---- --- -------- -------- --- --- -- ------- --- --- -----<br>-- --- ------ ------- --- --- -------- ---- --------- --<br>---------- -- -------- ----------------",189379,188085,189082,189073,189099,189401,,7,"inhabitants,"
screen,html.Screen,1_3_1_0_1_8,2021-04-25T15:24:04.134Z,,,,,,,,,,,,,,,,11,,,,,,,,,,,,,,-773,,response,,,,4,B,,,,,,Space,keypress(Space),,,,lyrical,,,,----- -- ---- --- -- --- -------- ------------ Rongorongo --<br>- ------- ------ --------- -- ------------ -- --- ---- -----<br>------ ---- ---- ------ ------ ------- --- ----- ---------<br>---- --- -------- -------- --- --- -- ------- --- --- -----<br>-- --- ------ ------- --- --- -------- ---- --------- --<br>---------- -- -------- ----------------,189906,188612,189385,189379,189401,189938,,8,Rongorongo
screen,html.Screen,1_3_1_0_1_9,2021-04-25T15:24:04.661Z,,,,,,,,,,,,,,,,11,,,,,,,,,,,,,,-782,,response,,,,4,B,,,,,,Space,keypress(Space),,,,lyrical,,,,----- -- ---- --- -- --- -------- ------------ ---------- is<br>- ------- ------ --------- -- ------------ -- --- ---- -----<br>------ ---- ---- ------ ------ ------- --- ----- ---------<br>---- --- -------- -------- --- --- -- ------- --- --- -----<br>-- --- ------ ------- --- --- -------- ---- --------- --<br>---------- -- -------- ----------------,190433,189139,189921,189906,189938,190474,,9,is
screen,html.Screen,1_3_1_0_1_10,2021-04-25T15:24:05.125Z,,,,,,,,,,,,,,,,11,,,,,,,,,,,,,,-854,,response,,,,4,B,,,,,,Space,keypress(Space),,,,lyrical,,,,----- -- ---- --- -- --- -------- ------------ ---------- --<br>a ------- ------ --------- -- ------------ -- --- ---- -----<br>------ ---- ---- ------ ------ ------- --- ----- ---------<br>---- --- -------- -------- --- --- -- ------- --- --- -----<br>-- --- ------ ------- --- --- -------- ---- --------- --<br>---------- -- -------- ----------------,190898,189603,190457,190433,190474,190927,,10,a
screen,html.Screen,1_3_1_0_1_11,2021-04-25T15:24:05.466Z,,,,,,,,,,,,,,,,11,,,,,,,,,,,,,,-965.9999999999709,,response,,,,4,B,,,,,,Space,keypress(Space),,,,lyrical,,,,----- -- ---- --- -- --- -------- ------------ ---------- --<br>- writing ------ --------- -- ------------ -- --- ---- -----<br>------ ---- ---- ------ ------ ------- --- ----- ---------<br>---- --- -------- -------- --- --- -- ------- --- --- -----<br>-- --- ------ ------- --- --- -------- ---- --------- --<br>---------- -- -------- ----------------,191239,189944.00000000003,190910,190898,190927,191264,,11,writing
screen,html.Screen,1_3_1_0_1_12,2021-04-25T15:24:05.775Z,,,,,,,,,,,,,,,,11,,,,,,,,,,,,,,-993,,response,,,,4,B,,,,,,Space,keypress(Space),,,,lyrical,,,,----- -- ---- --- -- --- -------- ------------ ---------- --<br>- ------- system --------- -- ------------ -- --- ---- -----<br>------ ---- ---- ------ ------ ------- --- ----- ---------<br>---- --- -------- -------- --- --- -- ------- --- --- -----<br>-- --- ------ ------- --- --- -------- ---- --------- --<br>---------- -- -------- ----------------,191547,190253,191246,191239,191264,191566,,12,system
screen,html.Screen,1_3_1_0_1_13,2021-04-25T15:24:06.071Z,,,,,,,,,,,,,,,,11,,,,,,,,,,,,,,-1001,,response,,,,4,B,,,,,,Space,keypress(Space),,,,lyrical,,,,----- -- ---- --- -- --- -------- ------------ ---------- --<br>- ------- ------ comprised -- ------------ -- --- ---- -----<br>------ ---- ---- ------ ------ ------- --- ----- ---------<br>---- --- -------- -------- --- --- -- ------- --- --- -----<br>-- --- ------ ------- --- --- -------- ---- --------- --<br>---------- -- -------- ----------------,191843.00000000003,190549,191550,191547,191566,191870,,13,comprised
screen,html.Screen,1_3_1_0_1_14,2021-04-25T15:24:06.407Z,,,,,,,,,,,,,,,,11,,,,,,,,,,,,,,-968,,response,,,,4,B,,,,,,Space,keypress(Space),,,,lyrical,,,,----- -- ---- --- -- --- -------- ------------ ---------- --<br>- ------- ------ --------- of ------------ -- --- ---- -----<br>------ ---- ---- ------ ------ ------- --- ----- ---------<br>---- --- -------- -------- --- --- -- ------- --- --- -----<br>-- --- ------ ------- --- --- -------- ---- --------- --<br>---------- -- -------- ----------------,192179,190885,191853,191843.00000000003,191870,192205,,14,of
screen,html.Screen,1_3_1_0_1_15,2021-04-25T15:24:06.697Z,,,,,,,,,,,,,,,,11,,,,,,,,,,,,,,-1014,,response,,,,4,B,,,,,,Space,keypress(Space),,,,lyrical,,,,----- -- ---- --- -- --- -------- ------------ ---------- --<br>- ------- ------ --------- -- pictographs. -- --- ---- -----<br>------ ---- ---- ------ ------ ------- --- ----- ---------<br>---- --- -------- -------- --- --- -- ------- --- --- -----<br>-- --- ------ ------- --- --- -------- ---- --------- --<br>---------- -- -------- ----------------,192469,191175,192189,192179,192205,192492,,15,pictographs.
screen,html.Screen,1_3_1_0_1_16,2021-04-25T15:24:07.235Z,,,,,,,,,,,,,,,,11,,,,,,,,,,,,,,-761,,response,,,,4,B,,,,,,Space,keypress(Space),,,,lyrical,,,,----- -- ---- --- -- --- -------- ------------ ---------- --<br>- ------- ------ --------- -- ------------ It --- ---- -----<br>------ ---- ---- ------ ------ ------- --- ----- ---------<br>---- --- -------- -------- --- --- -- ------- --- --- -----<br>-- --- ------ ------- --- --- -------- ---- --------- --<br>---------- -- -------- ----------------,193007,191713,192474,192469,192492,193043,,16,It
screen,html.Screen,1_3_1_0_1_17,2021-04-25T15:24:07.540Z,,,,,,,,,,,,,,,,11,,,,,,,,,,,,,,-1008,,response,,,,4,B,,,,,,Space,keypress(Space),,,,lyrical,,,,----- -- ---- --- -- --- -------- ------------ ---------- --<br>- ------- ------ --------- -- ------------ -- has ---- -----<br>------ ---- ---- ------ ------ ------- --- ----- ---------<br>---- --- -------- -------- --- --- -- ------- --- --- -----<br>-- --- ------ ------- --- --- -------- ---- --------- --<br>---------- -- -------- ----------------,193312,192018,193026,193007,193043,193346,,17,has
screen,html.Screen,1_3_1_0_1_18,2021-04-25T15:24:07.737Z,,,,,,,,,,,,,,,,11,,,,,,,,,,,,,,-1115,,response,,,,4,B,,,,,,Space,keypress(Space),,,,lyrical,,,,----- -- ---- --- -- --- -------- ------------ ---------- --<br>- ------- ------ --------- -- ------------ -- --- been -----<br>------ ---- ---- ------ ------ ------- --- ----- ---------<br>---- --- -------- -------- --- --- -- ------- --- --- -----<br>-- --- ------ ------- --- --- -------- ---- --------- --<br>---------- -- -------- ----------------,193509,192215,193330,193312,193346,193533,,18,been
screen,html.Screen,1_3_1_0_1_19,2021-04-25T15:24:07.954Z,,,,,,,,,,,,,,,,11,,,,,,,,,,,,,,-1083.999999999971,,response,,,,4,B,,,,,,Space,keypress(Space),,,,lyrical,,,,----- -- ---- --- -- --- -------- ------------ ---------- --<br>- ------- ------ --------- -- ------------ -- --- ---- found<br>------ ---- ---- ------ ------ ------- --- ----- ---------<br>---- --- -------- -------- --- --- -- ------- --- --- -----<br>-- --- ------ ------- --- --- -------- ---- --------- --<br>---------- -- -------- ----------------,193726,192432.00000000003,193516,193509,193533,193752,,19,found
screen,html.Screen,1_3_1_0_1_20,2021-04-25T15:24:08.315Z,,,,,,,,,,,,,,,,11,,,,,,,,,,,,,,-942,,response,,,,4,B,,,,,,Space,keypress(Space),,,,lyrical,,,,----- -- ---- --- -- --- -------- ------------ ---------- --<br>- ------- ------ --------- -- ------------ -- --- ---- -----<br>carved ---- ---- ------ ------ ------- --- ----- ---------<br>---- --- -------- -------- --- --- -- ------- --- --- -----<br>-- --- ------ ------- --- --- -------- ---- --------- --<br>---------- -- -------- ----------------,194087.00000000003,192793,193735,193726,193752,194122,,20,carved
screen,html.Screen,1_3_1_0_1_21,2021-04-25T15:24:08.681Z,,,,,,,,,,,,,,,,11,,,,,,,,,,,,,,-946,,response,,,,4,B,,,,,,Space,keypress(Space),,,,lyrical,,,,----- -- ---- --- -- --- -------- ------------ ---------- --<br>- ------- ------ --------- -- ------------ -- --- ---- -----<br>------ into ---- ------ ------ ------- --- ----- ---------<br>---- --- -------- -------- --- --- -- ------- --- --- -----<br>-- --- ------ ------- --- --- -------- ---- --------- --<br>---------- -- -------- ----------------,194453,193159,194105,194087.00000000003,194122,194474,,21,into
screen,html.Screen,1_3_1_0_1_22,2021-04-25T15:24:08.992Z,,,,,,,,,,,,,,,,11,,,,,,,,,,,,,,-988,,response,,,,4,B,,,,,,Space,keypress(Space),,,,lyrical,,,,----- -- ---- --- -- --- -------- ------------ ---------- --<br>- ------- ------ --------- -- ------------ -- --- ---- -----<br>------ ---- many ------ ------ ------- --- ----- ---------<br>---- --- -------- -------- --- --- -- ------- --- --- -----<br>-- --- ------ ------- --- --- -------- ---- --------- --<br>---------- -- -------- ----------------,194764,193469,194457,194453,194474,194794,,22,many
screen,html.Screen,1_3_1_0_1_23,2021-04-25T15:24:09.266Z,,,,,,,,,,,,,,,,11,,,,,,,,,,,,,,-1032,,response,,,,4,B,,,,,,Space,keypress(Space),,,,lyrical,,,,----- -- ---- --- -- --- -------- ------------ ---------- --<br>- ------- ------ --------- -- ------------ -- --- ---- -----<br>------ ---- ---- oblong ------ ------- --- ----- ---------<br>---- --- -------- -------- --- --- -- ------- --- --- -----<br>-- --- ------ ------- --- --- -------- ---- --------- --<br>---------- -- -------- ----------------,195038,193744,194776,194764,194794,195064,,23,oblong
screen,html.Screen,1_3_1_0_1_24,2021-04-25T15:24:09.542Z,,,,,,,,,,,,,,,,11,,,,,,,,,,,,,,-1026,,response,,,,4,B,,,,,,Space,keypress(Space),,,,lyrical,,,,----- -- ---- --- -- --- -------- ------------ ---------- --<br>- ------- ------ --------- -- ------------ -- --- ---- -----<br>------ ---- ---- ------ wooden ------- --- ----- ---------<br>---- --- -------- -------- --- --- -- ------- --- --- -----<br>-- --- ------ ------- --- --- -------- ---- --------- --<br>---------- -- -------- ----------------,195314,194020,195046,195038,195064,195333,,24,wooden
screen,html.Screen,1_3_1_0_1_25,2021-04-25T15:24:09.950Z,,,,,,,,,,,,,,,,11,,,,,,,,,,,,,,-888,,response,,,,4,B,,,,,,Space,keypress(Space),,,,lyrical,,,,----- -- ---- --- -- --- -------- ------------ ---------- --<br>- ------- ------ --------- -- ------------ -- --- ---- -----<br>------ ---- ---- ------ ------ tablets --- ----- ---------<br>---- --- -------- -------- --- --- -- ------- --- --- -----<br>-- --- ------ ------- --- --- -------- ---- --------- --<br>---------- -- -------- ----------------,195722,194428,195316,195314,195333,195752,,25,tablets
screen,html.Screen,1_3_1_0_1_26,2021-04-25T15:24:10.342Z,,,,,,,,,,,,,,,,11,,,,,,,,,,,,,,-915,,response,,,,4,B,,,,,,Space,keypress(Space),,,,lyrical,,,,----- -- ---- --- -- --- -------- ------------ ---------- --<br>- ------- ------ --------- -- ------------ -- --- ---- -----<br>------ ---- ---- ------ ------ ------- and ----- ---------<br>---- --- -------- -------- --- --- -- ------- --- --- -----<br>-- --- ------ ------- --- --- -------- ---- --------- --<br>---------- -- -------- ----------------,196114,194820,195735,195722,195752,196138,,26,and
screen,html.Screen,1_3_1_0_1_27,2021-04-25T15:24:10.659Z,,,,,,,,,,,,,,,,11,,,,,,,,,,,,,,-984,,response,,,,4,B,,,,,,Space,keypress(Space),,,,lyrical,,,,----- -- ---- --- -- --- -------- ------------ ---------- --<br>- ------- ------ --------- -- ------------ -- --- ---- -----<br>------ ---- ---- ------ ------ ------- --- other ---------<br>---- --- -------- -------- --- --- -- ------- --- --- -----<br>-- --- ------ ------- --- --- -------- ---- --------- --<br>---------- -- -------- ----------------,196431,195137,196121,196114,196138,196457,,27,other
screen,html.Screen,1_3_1_0_1_28,2021-04-25T15:24:10.877Z,,,,,,,,,,,,,,,,11,,,,,,,,,,,,,,-1087,,response,,,,4,B,,,,,,Space,keypress(Space),,,,lyrical,,,,----- -- ---- --- -- --- -------- ------------ ---------- --<br>- ------- ------ --------- -- ------------ -- --- ---- -----<br>------ ---- ---- ------ ------ ------- --- ----- artifacts<br>---- --- -------- -------- --- --- -- ------- --- --- -----<br>-- --- ------ ------- --- --- -------- ---- --------- --<br>---------- -- -------- ----------------,196649,195354,196441,196431,196457,196677,,28,artifacts
screen,html.Screen,1_3_1_0_1_29,2021-04-25T15:24:11.791Z,,,,,,,,,,,,,,,,11,,,,,,,,,,,,,,-391,,response,,,,4,B,,,,,,Space,keypress(Space),,,,lyrical,,,,----- -- ---- --- -- --- -------- ------------ ---------- --<br>- ------- ------ --------- -- ------------ -- --- ---- -----<br>------ ---- ---- ------ ------ ------- --- ----- ---------<br>from --- -------- -------- --- --- -- ------- --- --- -----<br>-- --- ------ ------- --- --- -------- ---- --------- --<br>---------- -- -------- ----------------,197563.00000000003,196269,196660,196649,196677,197596,,29,from
screen,html.Screen,1_3_1_0_1_30,2021-04-25T15:24:12.219Z,,,,,,,,,,,,,,,,11,,,,,,,,,,,,,,-883,,response,,,,4,B,,,,,,Space,keypress(Space),,,,lyrical,,,,----- -- ---- --- -- --- -------- ------------ ---------- --<br>- ------- ------ --------- -- ------------ -- --- ---- -----<br>------ ---- ---- ------ ------ ------- --- ----- ---------<br>---- the -------- -------- --- --- -- ------- --- --- -----<br>-- --- ------ ------- --- --- -------- ---- --------- --<br>---------- -- -------- ----------------,197991,196697,197580,197563.00000000003,197596,198033,,30,the
screen,html.Screen,1_3_1_0_1_31,2021-04-25T15:24:12.765Z,,,,,,,,,,,,,,,,11,,,,,,,,,,,,,,-772,,response,,,,4,B,,,,,,Space,keypress(Space),,,,lyrical,,,,----- -- ---- --- -- --- -------- ------------ ---------- --<br>- ------- ------ --------- -- ------------ -- --- ---- -----<br>------ ---- ---- ------ ------ ------- --- ----- ---------<br>---- --- island's -------- --- --- -- ------- --- --- -----<br>-- --- ------ ------- --- --- -------- ---- --------- --<br>---------- -- -------- ----------------,198538,197244,198016,197991,198033,198570,,31,island's
screen,html.Screen,1_3_1_0_1_32,2021-04-25T15:24:13.146Z,,,,,,,,,,,,,,,,11,,,,,,,,,,,,,,-930,,response,,,,4,B,,,,,,Space,keypress(Space),,,,lyrical,,,,----- -- ---- --- -- --- -------- ------------ ---------- --<br>- ------- ------ --------- -- ------------ -- --- ---- -----<br>------ ---- ---- ------ ------ ------- --- ----- ---------<br>---- --- -------- history. --- --- -- ------- --- --- -----<br>-- --- ------ ------- --- --- -------- ---- --------- --<br>---------- -- -------- ----------------,198919,197624,198554,198538,198570,198941,,32,history.
screen,html.Screen,1_3_1_0_1_33,2021-04-25T15:24:13.587Z,,,,,,,,,,,,,,,,11,,,,,,,,,,,,,,-858,,response,,,,4,B,,,,,,Space,keypress(Space),,,,lyrical,,,,----- -- ---- --- -- --- -------- ------------ ---------- --<br>- ------- ------ --------- -- ------------ -- --- ---- -----<br>------ ---- ---- ------ ------ ------- --- ----- ---------<br>---- --- -------- -------- The --- -- ------- --- --- -----<br>-- --- ------ ------- --- --- -------- ---- --------- --<br>---------- -- -------- ----------------,199360,198065,198923,198919,198941,199393,,33,The
screen,html.Screen,1_3_1_0_1_34,2021-04-25T15:24:14.208Z,,,,,,,,,,,,,,,,11,,,,,,,,,,,,,,-691,,response,,,,4,B,,,,,,Space,keypress(Space),,,,lyrical,,,,----- -- ---- --- -- --- -------- ------------ ---------- --<br>- ------- ------ --------- -- ------------ -- --- ---- -----<br>------ ---- ---- ------ ------ ------- --- ----- ---------<br>---- --- -------- -------- --- art -- ------- --- --- -----<br>-- --- ------ ------- --- --- -------- ---- --------- --<br>---------- -- -------- ----------------,199981,198686,199377,199360,199393,200013,,34,art
screen,html.Screen,1_3_1_0_1_35,2021-04-25T15:24:15.137Z,,,,,,,,,,,,,,,,11,,,,,,,,,,,,,,-381,,response,,,,4,B,,,,,,Space,keypress(Space),,,,lyrical,,,,----- -- ---- --- -- --- -------- ------------ ---------- --<br>- ------- ------ --------- -- ------------ -- --- ---- -----<br>------ ---- ---- ------ ------ ------- --- ----- ---------<br>---- --- -------- -------- --- --- of ------- --- --- -----<br>-- --- ------ ------- --- --- -------- ---- --------- --<br>---------- -- -------- ----------------,200909,199614,199995,199981,200013,200948,,35,of
screen,html.Screen,1_3_1_0_1_36,2021-04-25T15:24:16.129Z,,,,,,,,,,,,,,,,11,,,,,,,,,,,,,,-325,,response,,,,4,B,,,,,,Space,keypress(Space),,,,lyrical,,,,----- -- ---- --- -- --- -------- ------------ ---------- --<br>- ------- ------ --------- -- ------------ -- --- ---- -----<br>------ ---- ---- ------ ------ ------- --- ----- ---------<br>---- --- -------- -------- --- --- -- writing --- --- -----<br>-- --- ------ ------- --- --- -------- ---- --------- --<br>---------- -- -------- ----------------,201902.00000000003,200607,200932,200909,200948,201934,,36,writing
screen,html.Screen,1_3_1_0_1_37,2021-04-25T15:24:16.319Z,,,,,,,,,,,,,,,,11,,,,,,,,,,,,,,-1123,,response,,,,4,B,,,,,,Space,keypress(Space),,,,lyrical,,,,----- -- ---- --- -- --- -------- ------------ ---------- --<br>- ------- ------ --------- -- ------------ -- --- ---- -----<br>------ ---- ---- ------ ------ ------- --- ----- ---------<br>---- --- -------- -------- --- --- -- ------- was --- -----<br>-- --- ------ ------- --- --- -------- ---- --------- --<br>---------- -- -------- ----------------,202091,200796,201919,201902.00000000003,201934,202121,,37,was
screen,html.Screen,1_3_1_0_1_38,2021-04-25T15:24:16.515Z,,,,,,,,,,,,,,,,11,,,,,,,,,,,,,,-1113,,response,,,,4,B,,,,,,Space,keypress(Space),,,,lyrical,,,,----- -- ---- --- -- --- -------- ------------ ---------- --<br>- ------- ------ --------- -- ------------ -- --- ---- -----<br>------ ---- ---- ------ ------ ------- --- ----- ---------<br>---- --- -------- -------- --- --- -- ------- --- not -----<br>-- --- ------ ------- --- --- -------- ---- --------- --<br>---------- -- -------- ----------------,202287,200992,202105,202091,202121,202308,,38,not
screen,html.Screen,1_3_1_0_1_39,2021-04-25T15:24:16.731Z,,,,,,,,,,,,,,,,11,,,,,,,,,,,,,,-1082,,response,,,,4,B,,,,,,Space,keypress(Space),,,,lyrical,,,,----- -- ---- --- -- --- -------- ------------ ---------- --<br>- ------- ------ --------- -- ------------ -- --- ---- -----<br>------ ---- ---- ------ ------ ------- --- ----- ---------<br>---- --- -------- -------- --- --- -- ------- --- --- known<br>-- --- ------ ------- --- --- -------- ---- --------- --<br>---------- -- -------- ----------------,202504,201209,202291,202287,202308,202528,,39,known
screen,html.Screen,1_3_1_0_1_40,2021-04-25T15:24:17.011Z,,,,,,,,,,,,,,,,11,,,,,,,,,,,,,,-1023,,response,,,,4,B,,,,,,Space,keypress(Space),,,,lyrical,,,,----- -- ---- --- -- --- -------- ------------ ---------- --<br>- ------- ------ --------- -- ------------ -- --- ---- -----<br>------ ---- ---- ------ ------ ------- --- ----- ---------<br>---- --- -------- -------- --- --- -- ------- --- --- -----<br>in --- ------ ------- --- --- -------- ---- --------- --<br>---------- -- -------- ----------------,202783.00000000003,201488,202511,202504,202528,202814,,40,in
screen,html.Screen,1_3_1_0_1_41,2021-04-25T15:24:17.220Z,,,,,,,,,,,,,,,,11,,,,,,,,,,,,,,-1100,,response,,,,4,B,,,,,,Space,keypress(Space),,,,lyrical,,,,----- -- ---- --- -- --- -------- ------------ ---------- --<br>- ------- ------ --------- -- ------------ -- --- ---- -----<br>------ ---- ---- ------ ------ ------- --- ----- ---------<br>---- --- -------- -------- --- --- -- ------- --- --- -----<br>-- any ------ ------- --- --- -------- ---- --------- --<br>---------- -- -------- ----------------,202993,201698,202798,202783.00000000003,202814,203016,,41,any
screen,html.Screen,1_3_1_0_1_42,2021-04-25T15:24:17.399Z,,,,,,,,,,,,,,,,11,,,,,,,,,,,,,,-1122,,response,,,,4,B,,,,,,Space,keypress(Space),,,,lyrical,,,,----- -- ---- --- -- --- -------- ------------ ---------- --<br>- ------- ------ --------- -- ------------ -- --- ---- -----<br>------ ---- ---- ------ ------ ------- --- ----- ---------<br>---- --- -------- -------- --- --- -- ------- --- --- -----<br>-- --- nearby ------- --- --- -------- ---- --------- --<br>---------- -- -------- ----------------,203172,201877,202999,202993,203016,203202,,42,nearby
screen,html.Screen,1_3_1_0_1_43,2021-04-25T15:24:17.610Z,,,,,,,,,,,,,,,,11,,,,,,,,,,,,,,-1099,,response,,,,4,B,,,,,,Space,keypress(Space),,,,lyrical,,,,----- -- ---- --- -- --- -------- ------------ ---------- --<br>- ------- ------ --------- -- ------------ -- --- ---- -----<br>------ ---- ---- ------ ------ ------- --- ----- ---------<br>---- --- -------- -------- --- --- -- ------- --- --- -----<br>-- --- ------ islands --- --- -------- ---- --------- --<br>---------- -- -------- ----------------,203383,202088,203187,203172,203202,203406,,43,islands
screen,html.Screen,1_3_1_0_1_44,2021-04-25T15:24:17.827Z,,,,,,,,,,,,,,,,11,,,,,,,,,,,,,,-1084,,response,,,,4,B,,,,,,Space,keypress(Space),,,,lyrical,,,,----- -- ---- --- -- --- -------- ------------ ---------- --<br>- ------- ------ --------- -- ------------ -- --- ---- -----<br>------ ---- ---- ------ ------ ------- --- ----- ---------<br>---- --- -------- -------- --- --- -- ------- --- --- -----<br>-- --- ------ ------- and --- -------- ---- --------- --<br>---------- -- -------- ----------------,203599.00000000003,202304,203388,203383,203406,203625,,44,and
screen,html.Screen,1_3_1_0_1_45,2021-04-25T15:24:18.167Z,,,,,,,,,,,,,,,,11,,,,,,,,,,,,,,-964,,response,,,,4,B,,,,,,Space,keypress(Space),,,,lyrical,,,,----- -- ---- --- -- --- -------- ------------ ---------- --<br>- ------- ------ --------- -- ------------ -- --- ---- -----<br>------ ---- ---- ------ ------ ------- --- ----- ---------<br>---- --- -------- -------- --- --- -- ------- --- --- -----<br>-- --- ------ ------- --- the -------- ---- --------- --<br>---------- -- -------- ----------------,203940,202645,203609,203599.00000000003,203625,203962,,45,the
screen,html.Screen,1_3_1_0_1_46,2021-04-25T15:24:18.369Z,,,,,,,,,,,,,,,,11,,,,,,,,,,,,,,-1098,,response,,,,4,B,,,,,,Space,keypress(Space),,,,lyrical,,,,----- -- ---- --- -- --- -------- ------------ ---------- --<br>- ------- ------ --------- -- ------------ -- --- ---- -----<br>------ ---- ---- ------ ------ ------- --- ----- ---------<br>---- --- -------- -------- --- --- -- ------- --- --- -----<br>-- --- ------ ------- --- --- script's ---- --------- --<br>---------- -- -------- ----------------,204142,202847,203945,203940,203962,204163,,46,script's
screen,html.Screen,1_3_1_0_1_47,2021-04-25T15:24:18.637Z,,,,,,,,,,,,,,,,11,,,,,,,,,,,,,,-1033,,response,,,,4,B,,,,,,Space,keypress(Space),,,,lyrical,,,,----- -- ---- --- -- --- -------- ------------ ---------- --<br>- ------- ------ --------- -- ------------ -- --- ---- -----<br>------ ---- ---- ------ ------ ------- --- ----- ---------<br>---- --- -------- -------- --- --- -- ------- --- --- -----<br>-- --- ------ ------- --- --- -------- mere --------- --<br>---------- -- -------- ----------------,204409,203114,204147,204142,204163,204433,,47,mere
screen,html.Screen,1_3_1_0_1_48,2021-04-25T15:24:18.995Z,,,,,,,,,,,,,,,,11,,,,,,,,,,,,,,-944,,response,,,,4,B,,,,,,Space,keypress(Space),,,,lyrical,,,,----- -- ---- --- -- --- -------- ------------ ---------- --<br>- ------- ------ --------- -- ------------ -- --- ---- -----<br>------ ---- ---- ------ ------ ------- --- ----- ---------<br>---- --- -------- -------- --- --- -- ------- --- --- -----<br>-- --- ------ ------- --- --- -------- ---- existence --<br>---------- -- -------- ----------------,204768,203473,204417,204409,204433,204786,,48,existence
screen,html.Screen,1_3_1_0_1_49,2021-04-25T15:24:19.339Z,,,,,,,,,,,,,,,,11,,,,,,,,,,,,,,-953,,response,,,,4,B,,,,,,Space,keypress(Space),,,,lyrical,,,,----- -- ---- --- -- --- -------- ------------ ---------- --<br>- ------- ------ --------- -- ------------ -- --- ---- -----<br>------ ---- ---- ------ ------ ------- --- ----- ---------<br>---- --- -------- -------- --- --- -- ------- --- --- -----<br>-- --- ------ ------- --- --- -------- ---- --------- is<br>---------- -- -------- ----------------,205112,203817,204770,204768,204786,205138,,49,is
screen,html.Screen,1_3_1_0_1_50,2021-04-25T15:24:19.609Z,,,,,,,,,,,,,,,,11,,,,,,,,,,,,,,-1034.999999999971,,response,,,,4,B,,,,,,Space,keypress(Space),,,,lyrical,,,,----- -- ---- --- -- --- -------- ------------ ---------- --<br>- ------- ------ --------- -- ------------ -- --- ---- -----<br>------ ---- ---- ------ ------ ------- --- ----- ---------<br>---- --- -------- -------- --- --- -- ------- --- --- -----<br>-- --- ------ ------- --- --- -------- ---- --------- --<br>sufficient -- -------- ----------------,205382,204087.00000000003,205122,205112,205138,205408,,50,sufficient
screen,html.Screen,1_3_1_0_1_51,2021-04-25T15:24:19.821Z,,,,,,,,,,,,,,,,11,,,,,,,,,,,,,,-1092,,response,,,,4,B,,,,,,Space,keypress(Space),,,,lyrical,,,,----- -- ---- --- -- --- -------- ------------ ---------- --<br>- ------- ------ --------- -- ------------ -- --- ---- -----<br>------ ---- ---- ------ ------ ------- --- ----- ---------<br>---- --- -------- -------- --- --- -- ------- --- --- -----<br>-- --- ------ ------- --- --- -------- ---- --------- --<br>---------- to -------- ----------------,205593.00000000003,204299,205391,205382,205408,205628,,51,to
screen,html.Screen,1_3_1_0_1_52,2021-04-25T15:24:20.047Z,,,,,,,,,,,,,,,,11,,,,,,,,,,,,,,-1087,,response,,,,4,B,,,,,,Space,keypress(Space),,,,lyrical,,,,----- -- ---- --- -- --- -------- ------------ ---------- --<br>- ------- ------ --------- -- ------------ -- --- ---- -----<br>------ ---- ---- ------ ------ ------- --- ----- ---------<br>---- --- -------- -------- --- --- -- ------- --- --- -----<br>-- --- ------ ------- --- --- -------- ---- --------- --<br>---------- -- confound ----------------,205819.00000000003,204524,205611,205594,205628,205847,,52,confound
screen,html.Screen,1_3_1_0_1_53,2021-04-25T15:24:20.325Z,,,,,,,,,,,,,,,,11,,,,,,,,,,,,,,-1029,,response,,,,4,B,,,,,,Space,keypress(Space),,,,lyrical,,,,----- -- ---- --- -- --- -------- ------------ ---------- --<br>- ------- ------ --------- -- ------------ -- --- ---- -----<br>------ ---- ---- ------ ------ ------- --- ----- ---------<br>---- --- -------- -------- --- --- -- ------- --- --- -----<br>-- --- ------ ------- --- --- -------- ---- --------- --<br>---------- -- -------- anthropologists.,206097,204802,205831,205819.00000000003,205847,206116,,53,anthropologists.
Item 4,flow.Loop,1_3_1_0_1,2021-04-25T15:24:20.325Z,,,,,,,,,,,,,,,,,,,,,,,,,,,,,,18501,,completion,,,,,,,,,,,,,,,,,,,,,206098,204802,186284,186284,186301,206116,,,
Question 1,html.Screen,1_3_1_0_2,2021-04-25T15:24:22.209Z,,,,,,,,,,,,,,,,,,,,,,,,,,,true,FALSE,,588.0000000000291,,response,,,,4,B,,,,,,FALSE,click #choice-2,,,,lyrical,,,,,207981,206688.00000000003,206100,206098,206116,208008,,,
Question 2,html.Screen,1_3_1_0_3,2021-04-25T15:24:24.919Z,,,,,,,,,,,,,,,,,,,,,,,,,,,false,TRUE,,1406,,response,,,,4,B,,,,,,FALSE,click #choice-2,,,,lyrical,,,,,210691,209398,207992,207981,208008,210712,,,
Item 4,flow.Sequence,1_3_1_0,2021-04-25T15:24:24.919Z,,,,,,,,,,,,,,,,,,,,,,,,,,,,,,30104,,completion,,,,,,,,,,,,,,,,,,,,,210691,209398,179277,179278,179294,210712,,,
Holding screen,html.Screen,1_3_1_1_0,2021-04-25T15:24:31.928Z,,,,,,,,,,,,,,,,,,,,,,,,,,,,,,7005,,timeout,,,,,,,,,,,,,,,,,,,,,217701,217700,210696,210691,210712,217717,,,
screen,html.Screen,1_3_1_1_1_0,2021-04-25T15:24:32.742Z,,,,,,,,,,,,,,,,15,,,,,,,,,,,,,,-481,,response,,,,7,B,,,,,,Space,keypress(Space),,,,lyrical,,,,Greg --------- ---------- - --- ------- -- --- ------------<br>----- -- -------- ------- ---- ------ - -------- ---- -----<br>--- ------- ---- -- --- -------- --- - ----- ------ ---- --<br>-------- --- -------- -------- --- -------- ---- -- ----- -<br>-------- ---- --- ---------- --------- -- ------- ------ -<br>--------- ----- -----,218514,217219,217700,217701,217717,218553,,0,Greg
screen,html.Screen,1_3_1_1_1_1,2021-04-25T15:24:33.015Z,,,,,,,,,,,,,,,,15,,,,,,,,,,,,,,-1043.999999999971,,response,,,,7,B,,,,,,Space,keypress(Space),,,,lyrical,,,,"---- Anderson, ---------- - --- ------- -- --- ------------<br>----- -- -------- ------- ---- ------ - -------- ---- -----<br>--- ------- ---- -- --- -------- --- - ----- ------ ---- --<br>-------- --- -------- -------- --- -------- ---- -- ----- -<br>-------- ---- --- ---------- --------- -- ------- ------ -<br>--------- ----- -----",218787,217492.00000000003,218536,218514,218553,218810,,1,"Anderson,"
