sender,sender_type,sender_id,timestamp,meta,,Blues,Classical,Country,Dance,Electronic,Folk,Gospel,Hip-Hop,Jazz,Latin,Musical/Film,New-age,Pop,Prolific_id,Provo_ID,R&B,Rap,Reggae,Religious,Rock,Soul,Swing,Traditional,age,artist_name,correct,correctResponse,distraction,duration,education,ended_on,familiarity,gender,headphone_check_performance,item,list,music_frequency,offensiveness,pleasantness,position_correct,preference,response,response_action,snippet_file,song_name,song_rating,sound,stimulus_1,stimulus_2,stimulus_3,text,time_commit,time_end,time_render,time_run,time_show,time_switch,url,word,word_ID
Prolific ID,html.Form,0,2022-05-10T16:17:35.881Z,"{""labjs_version"":""20.2.2"",""labjs_build"":{""flavor"":""production"",""commit"":""a25486e0c714a0ae2ce03ff94b7bb6896854dcfa""},""location"":""https://run.pavlovia.org/mvasilev/prolific3_music_b/"",""userAgent"":""Mozilla/5.0 (Windows NT 10.0; Win64; x64) AppleWebKit/537.36 (KHTML, like Gecko) Chrome/101.0.4951.54 Safari/537.36"",""platform"":""Win32"",""language"":""en-GB"",""locale"":""en-US"",""timeZone"":""Europe/London"",""timezoneOffset"":-60,""screen_width"":1366,""screen_height"":768,""scroll_width"":1366,""scroll_height"":577,""window_innerWidth"":1366,""window_innerHeight"":625,""devicePixelRatio"":1}",,,,,,,,,,,,,,,60e564056acbe72cb648e68a,,,,,,,,,,,,,,,16101.260000011927,,form submission,,,,,,,,,,,,,,,,,,,,,91280.5,91278.80000001192,74995.845,68822.89999997616,75177.54,91741.578,{},,
Introduction,html.Screen,1_0,2022-05-10T16:17:59.528Z,,,,,,,,,,,,,,,,,,,,,,,,,,,,,,,23178.821999976164,,response,,,,,,,,,,,continue,click button,,,,,,,,,114927.39999997616,114920.39999997616,91208.308,91281.39999997616,91741.578,115271.226,,,
Volume calibration,html.Screen,1_1,2022-05-10T16:18:14.992Z,,,,,,,,,,,,,,,,,,,,,,,,,,,,,,,15112.574000011926,,response,,,,,,,,,,,continue,click button,,,,,,,,,130390.80000001192,130383.80000001192,114921.243,114927.80000001192,115271.226,130402.16,,,
Task instructions,html.Screen,1_2,2022-05-10T16:18:16.774Z,,,,,,,,,,,,,,,,,,,,,,,,,,,,,,,1768.7399999761546,,response,,,,,,,,,,,continue,click button,,,,,,,,,132173.5,132170.89999997616,130385.499,130391.19999998808,130402.16,132185.772,,,
Sounds,html.Screen,1_3_0_0,2022-05-10T16:18:21.043Z,,,,,,,,,,,,,,,,,,,,,,,,,,,,,,,4265.434000000008,,timeout,,,,,,,,,2,,,,,,,,I,S,O,,136442.69999998808,136417.902,132168.524,132174.30000001192,132185.772,136451.206,,,
Judgement,html.Screen,1_3_0_1,2022-05-10T16:18:25.608Z,,,,,,,,,,,,,,,,,,,,,,,,,,,,true,2,,4552.293999999994,,response,,,,,,,,,2,,2,click #choice-2,,,,,I,S,O,,141007.19999998808,141003.5,136417.902,136443.30000001192,136451.206,141017.208,,,
Trial,flow.Sequence,1_3_0,2022-05-10T16:18:25.614Z,,,,,,,,,,,,,,,,,,,,,,,,,,,,,,,8817.728000000003,,completion,,,,,,,,,2,,,,,,,,I,S,O,,141013,141003.5,132168.524,132174.19999998808,132185.772,141017.208,,,
Sounds,html.Screen,1_3_1_0,2022-05-10T16:18:29.855Z,,,,,,,,,,,,,,,,,,,,,,,,,,,,,,,4249.435999999987,,timeout,,,,,,,,,1,,,,,,,,S,I,O,,145254.39999997616,145249.87,141000.474,141013.60000002384,141017.208,145266.644,,,
Judgement,html.Screen,1_3_1_1,2022-05-10T16:18:30.929Z,,,,,,,,,,,,,,,,,,,,,,,,,,,,true,1,,1058.255999976158,,response,,,,,,,,,1,,1,click #choice-1,,,,,S,I,O,,146328.60000002384,146324.89999997616,145249.87,145255.80000001192,145266.644,146349.623,,,
Trial,flow.Sequence,1_3_1,2022-05-10T16:18:30.930Z,,,,,,,,,,,,,,,,,,,,,,,,,,,,,,,5307.691999976145,,completion,,,,,,,,,1,,,,,,,,S,I,O,,146329.5,146324.89999997616,141000.474,141013.5,141017.208,146349.623,,,
Sounds,html.Screen,1_3_2_0,2022-05-10T16:18:35.187Z,,,,,,,,,,,,,,,,,,,,,,,,,,,,,,,4268.811000000016,,timeout,,,,,,,,,1,,,,,,,,S,O,I,,150586.60000002384,150582.86,146332.999,146330.10000002384,146349.623,150618.434,,,
Judgement,html.Screen,1_3_2_1,2022-05-10T16:18:36.077Z,,,,,,,,,,,,,,,,,,,,,,,,,,,,true,1,,854.1660000238335,,response,,,,,,,,,1,,1,click #choice-1,,,,,S,O,I,,151476.19999998808,151472.60000002384,150582.86,150588.10000002384,150618.434,151482.283,,,
Trial,flow.Sequence,1_3_2,2022-05-10T16:18:36.078Z,,,,,,,,,,,,,,,,,,,,,,,,,,,,,,,5122.9770000238495,,completion,,,,,,,,,1,,,,,,,,S,O,I,,151477.19999998808,151472.60000002384,146332.999,146329.89999997616,146349.623,151482.283,,,
Sounds,html.Screen,1_3_3_0,2022-05-10T16:18:40.323Z,,,,,,,,,,,,,,,,,,,,,,,,,,,,,,,4249.508999999991,,timeout,,,,,,,,,3,,,,,,,,I,O,S,,155722.30000001192,155715.425,151465.776,151477.80000001192,151482.283,155731.792,,,
Judgement,html.Screen,1_3_3_1,2022-05-10T16:18:41.123Z,,,,,,,,,,,,,,,,,,,,,,,,,,,,true,3,,787.3080000238551,,response,,,,,,,,,3,,3,click #choice-3,,,,,I,O,S,,156522.30000001192,156519.10000002384,155715.425,155723.10000002384,155731.792,156531.371,,,
Trial,flow.Sequence,1_3_3,2022-05-10T16:18:41.124Z,,,,,,,,,,,,,,,,,,,,,,,,,,,,,,,5036.817000023846,,completion,,,,,,,,,3,,,,,,,,I,O,S,,156522.89999997616,156519.10000002384,151465.776,151477.60000002384,151482.283,156531.371,,,
Sounds,html.Screen,1_3_4_0,2022-05-10T16:18:45.371Z,,,,,,,,,,,,,,,,,,,,,,,,,,,,,,,4249.363999999972,,timeout,,,,,,,,,3,,,,,,,,O,I,S,,160770.5,160764.335,156515.123,156523.5,156531.371,160780.735,,,
Judgement,html.Screen,1_3_4_1,2022-05-10T16:18:45.946Z,,,,,,,,,,,,,,,,,,,,,,,,,,,,true,3,,561.3650000238558,,response,,,,,,,,,3,,3,click #choice-3,,,,,O,I,S,,161345.19999998808,161342.10000002384,160764.335,160771.30000001192,160780.735,161348.112,,,
Trial,flow.Sequence,1_3_4,2022-05-10T16:18:45.947Z,,,,,,,,,,,,,,,,,,,,,,,,,,,,,,,4810.729000023828,,completion,,,,,,,,,3,,,,,,,,O,I,S,,161345.89999997616,161342.10000002384,156515.123,156523.30000001192,156531.371,161348.112,,,
Sounds,html.Screen,1_3_5_0,2022-05-10T16:18:50.184Z,,,,,,,,,,,,,,,,,,,,,,,,,,,,,,,4249.736999999994,,timeout,,,,,,,,,2,,,,,,,,O,S,I,,165583.10000002384,165580.364,161330.684,161346.60000002384,161348.112,165597.849,,,
Judgement,html.Screen,1_3_5_1,2022-05-10T16:18:50.789Z,,,,,,,,,,,,,,,,,,,,,,,,,,,,true,2,,586.8509999880916,,response,,,,,,,,,2,,2,click #choice-2,,,,,O,S,I,,166188.60000002384,166184.69999998808,165580.364,165583.5,165597.849,166296.545,,,
Trial,flow.Sequence,1_3_5,2022-05-10T16:18:50.790Z,,,,,,,,,,,,,,,,,,,,,,,,,,,,,,,4836.587999988085,,completion,,,,,,,,,2,,,,,,,,O,S,I,,166189.19999998808,166184.69999998808,161330.684,161346.30000001192,161348.112,166296.545,,,
Task,flow.Loop,1_3,2022-05-10T16:18:50.812Z,,,,,,,,,,,,,,,,,,,,,,,,,,,,,,,33998.92799998808,,completion,,,1,,,,,,,,,,,,,,,,,,166211,166184.69999998808,132168.524,132174,132185.772,166296.545,,,
Trap,html.Screen,1_4,2022-05-10T16:18:50.875Z,,,,,,,,,,,,,,,,,,,,,,,,,,,,,,,NaN,,skipped,,,,,,,,,,,,,,,,,,,,,166273.89999997616,166184.69999998808,,166272.60000002384,,166296.545,,,
Thanks,html.Screen,1_5,2022-05-10T16:18:54.941Z,,,,,,,,,,,,,,,,,,,,,,,,,,,,,,,4041.555000023829,,response,,,,,,,,,,,continue,click button,,,,,,,,,170340.69999998808,170338.10000002384,166179.881,166274.89999997616,166296.545,174395.248,,,
Headphone screening,flow.Sequence,1,2022-05-10T16:18:54.942Z,,,,,,,,,,,,,,,,,,,,,,,,,,,,,,,78596.52200002385,,completion,,,,,,,,,,,,,,,,,,,,,170341.30000001192,170338.10000002384,91208.308,91281.30000001192,91741.578,174395.248,,,
Instructions,html.Page,2_0,2022-05-10T16:19:23.767Z,,,,,,,,,,,,,,,,,,,,,,,,,,,,,,,24768.752000000008,,form submission,,,,,,,,,,,,,,,,,,,,,199164.89999997616,199164,173961.957,174353.10000002384,174395.248,199258.004,,,
Holding screen,html.Screen,2_1_0_0,2022-05-10T16:19:33.845Z,,,,,,,,,,,,,,,,,,,,,,,,,,,,,,,10231.667000000016,,timeout,,,,,,,,,,,,,,,,,,,,,209243.69999998808,209223.403,199158.082,199165.80000001192,199258.004,209489.671,,,
screen,html.Screen,2_1_0_1_0,2022-05-10T16:19:34.934Z,,,,,,,,,,,,,,,,,53,,,,,,,,,,,,,,821.8289999999979,,response,,,,99,,,,,,,Space,keypress(Space),,,,,,,,When -- ----- -- ------ - ------- --- ----------<br>------------- ------ ------ ---- ---- ------- ----- -- ----<br>-------- ------- -- ---------- --- - --- ----- ----- ----<br>---- --- --- ----- --- ---- ---- ------- ----- ---- -------<br>--- --- -- ----- -- --- ---- -- --- ---- -- ------ ------<br>--- ----- -- ----,210332.39999997616,210311.5,209223.403,209244.89999997616,209489.671,210339.883,,0,When
screen,html.Screen,2_1_0_1_1,2022-05-10T16:19:35.377Z,,,,,,,,,,,,,,,,,53,,,,,,,,,,,,,,429.9170000119193,,response,,,,99,,,,,,,Space,keypress(Space),,,,,,,,---- it ----- -- ------ - ------- --- ----------<br>------------- ------ ------ ---- ---- ------- ----- -- ----<br>-------- ------- -- ---------- --- - --- ----- ----- ----<br>---- --- --- ----- --- ---- ---- ------- ----- ---- -------<br>--- --- -- ----- -- --- ---- -- --- ---- -- ------ ------<br>--- ----- -- ----,210774.89999997616,210769.80000001192,210322.827,210333.80000001192,210339.883,210790.063,,1,it
screen,html.Screen,2_1_0_1_2,2022-05-10T16:19:35.775Z,,,,,,,,,,,,,,,,,53,,,,,,,,,,,,,,377.6369999880844,,response,,,,99,,,,,,,Space,keypress(Space),,,,,,,,---- -- comes -- ------ - ------- --- ----------<br>------------- ------ ------ ---- ---- ------- ----- -- ----<br>-------- ------- -- ---------- --- - --- ----- ----- ----<br>---- --- --- ----- --- ---- ---- ------- ----- ---- -------<br>--- --- -- ----- -- --- ---- -- --- ---- -- ------ ------<br>--- ----- -- ----,211173,211167.69999998808,210772.982,210776,210790.063,211189.542,,2,comes
screen,html.Screen,2_1_0_1_3,2022-05-10T16:19:36.116Z,,,,,,,,,,,,,,,,,53,,,,,,,,,,,,,,319.65799998809234,,response,,,,99,,,,,,,Space,keypress(Space),,,,,,,,---- -- ----- to ------ - ------- --- ----------<br>------------- ------ ------ ---- ---- ------- ----- -- ----<br>-------- ------- -- ---------- --- - --- ----- ----- ----<br>---- --- --- ----- --- ---- ---- ------- ----- ---- -------<br>--- --- -- ----- -- --- ---- -- --- ---- -- ------ ------<br>--- ----- -- ----,211514.19999998808,211509.19999998808,211173.012,211174.10000002384,211189.542,211522.927,,3,to
screen,html.Screen,2_1_0_1_4,2022-05-10T16:19:36.536Z,,,,,,,,,,,,,,,,,53,,,,,,,,,,,,,,406.3730000119249,,response,,,,99,,,,,,,Space,keypress(Space),,,,,,,,---- -- ----- -- having - ------- --- ----------<br>------------- ------ ------ ---- ---- ------- ----- -- ----<br>-------- ------- -- ---------- --- - --- ----- ----- ----<br>---- --- --- ----- --- ---- ---- ------- ----- ---- -------<br>--- --- -- ----- -- --- ---- -- --- ---- -- ------ ------<br>--- ----- -- ----,211934.19999998808,211929.30000001192,211506.051,211515.39999997616,211522.927,211939.358,,4,having
screen,html.Screen,2_1_0_1_5,2022-05-10T16:19:36.869Z,,,,,,,,,,,,,,,,,53,,,,,,,,,,,,,,323.4420000119135,,response,,,,99,,,,,,,Space,keypress(Space),,,,,,,,---- -- ----- -- ------ a ------- --- ----------<br>------------- ------ ------ ---- ---- ------- ----- -- ----<br>-------- ------- -- ---------- --- - --- ----- ----- ----<br>---- --- --- ----- --- ---- ---- ------- ----- ---- -------<br>--- --- -- ----- -- --- ---- -- --- ---- -- ------ ------<br>--- ----- -- ----,212267.39999997616,212262.80000001192,211922.742,211935.30000001192,211939.358,212272.794,,5,a
screen,html.Screen,2_1_0_1_6,2022-05-10T16:19:37.152Z,,,,,,,,,,,,,,,,,53,,,,,,,,,,,,,,272.5060000119265,,response,,,,99,,,,,,,Space,keypress(Space),,,,,,,,---- -- ----- -- ------ - lasting --- ----------<br>------------- ------ ------ ---- ---- ------- ----- -- ----<br>-------- ------- -- ---------- --- - --- ----- ----- ----<br>---- --- --- ----- --- ---- ---- ------- ----- ---- -------<br>--- --- -- ----- -- --- ---- -- --- ---- -- ------ ------<br>--- ----- -- ----,212550.10000002384,212545.30000001192,212255.97,212268.60000002384,212272.794,212555.968,,6,lasting
screen,html.Screen,2_1_0_1_7,2022-05-10T16:19:37.452Z,,,,,,,,,,,,,,,,,53,,,,,,,,,,,,,,289.1320000238484,,response,,,,99,,,,,,,Space,keypress(Space),,,,,,,,---- -- ----- -- ------ - ------- and ----------<br>------------- ------ ------ ---- ---- ------- ----- -- ----<br>-------- ------- -- ---------- --- - --- ----- ----- ----<br>---- --- --- ----- --- ---- ---- ------- ----- ---- -------<br>--- --- -- ----- -- --- ---- -- --- ---- -- ------ ------<br>--- ----- -- ----,212850.30000001192,212845.10000002384,212539.444,212551.19999998808,212555.968,212856.271,,7,and
screen,html.Screen,2_1_0_1_8,2022-05-10T16:19:37.746Z,,,,,,,,,,,,,,,,,53,,,,,,,,,,,,,,283.2289999999921,,response,,,,99,,,,,,,Space,keypress(Space),,,,,,,,---- -- ----- -- ------ - ------- --- fulfilling<br>------------- ------ ------ ---- ---- ------- ----- -- ----<br>-------- ------- -- ---------- --- - --- ----- ----- ----<br>---- --- --- ----- --- ---- ---- ------- ----- ---- -------<br>--- --- -- ----- -- --- ---- -- --- ---- -- ------ ------<br>--- ----- -- ----,213144.60000002384,213139.5,212839.309,212851.69999998808,212856.271,213156.143,,8,fulfilling
screen,html.Screen,2_1_0_1_9,2022-05-10T16:19:38.033Z,,,,,,,,,,,,,,,,,53,,,,,,,,,,,,,,270.15700001191,,response,,,,99,,,,,,,Space,keypress(Space),,,,,,,,"---- -- ----- -- ------ - ------- --- ----------<br>relationship, ------ ------ ---- ---- ------- ----- -- ----<br>-------- ------- -- ---------- --- - --- ----- ----- ----<br>---- --- --- ----- --- ---- ---- ------- ----- ---- -------<br>--- --- -- ----- -- --- ---- -- --- ---- -- ------ ------<br>--- ----- -- ----",213431.60000002384,213426.30000001192,213139.645,213145.89999997616,213156.143,213439.175,,9,"relationship,"
screen,html.Screen,2_1_0_1_10,2022-05-10T16:19:38.330Z,,,,,,,,,,,,,,,,,53,,,,,,,,,,,,,,284.62500001193257,,response,,,,99,,,,,,,Space,keypress(Space),,,,,,,,---- -- ----- -- ------ - ------- --- ----------<br>------------- common ------ ---- ---- ------- ----- -- ----<br>-------- ------- -- ---------- --- - --- ----- ----- ----<br>---- --- --- ----- --- ---- ---- ------- ----- ---- -------<br>--- --- -- ----- -- --- ---- -- --- ---- -- ------ ------<br>--- ----- -- ----,213728.5,213723.80000001192,213422.933,213433,213439.175,213739.303,,10,common
screen,html.Screen,2_1_0_1_11,2022-05-10T16:19:38.580Z,,,,,,,,,,,,,,,,,53,,,,,,,,,,,,,,234.5969999761437,,response,,,,99,,,,,,,Space,keypress(Space),,,,,,,,---- -- ----- -- ------ - ------- --- ----------<br>------------- ------ wisdom ---- ---- ------- ----- -- ----<br>-------- ------- -- ---------- --- - --- ----- ----- ----<br>---- --- --- ----- --- ---- ---- ------- ----- ---- -------<br>--- --- -- ----- -- --- ---- -- --- ---- -- ------ ------<br>--- ----- -- ----,213978.60000002384,213973.89999997616,213723.192,213729.60000002384,213739.303,213989.213,,11,wisdom
screen,html.Screen,2_1_0_1_12,2022-05-10T16:19:38.833Z,,,,,,,,,,,,,,,,,53,,,,,,,,,,,,,,237.18699997616932,,response,,,,99,,,,,,,Space,keypress(Space),,,,,,,,---- -- ----- -- ------ - ------- --- ----------<br>------------- ------ ------ says ---- ------- ----- -- ----<br>-------- ------- -- ---------- --- - --- ----- ----- ----<br>---- --- --- ----- --- ---- ---- ------- ----- ---- -------<br>--- --- -- ----- -- --- ---- -- --- ---- -- ------ ------<br>--- ----- -- ----,214231.5,214226.39999997616,213972.488,213979.69999998808,213989.213,214239.251,,12,says
screen,html.Screen,2_1_0_1_13,2022-05-10T16:19:39.019Z,,,,,,,,,,,,,,,,,53,,,,,,,,,,,,,,170.34900002385257,,response,,,,99,,,,,,,Space,keypress(Space),,,,,,,,---- -- ----- -- ------ - ------- --- ----------<br>------------- ------ ------ ---- that ------- ----- -- ----<br>-------- ------- -- ---------- --- - --- ----- ----- ----<br>---- --- --- ----- --- ---- ---- ------- ----- ---- -------<br>--- --- -- ----- -- --- ---- -- --- ---- -- ------ ------<br>--- ----- -- ----,214417.10000002384,214409.60000002384,214222.986,214232.69999998808,214239.251,214422.322,,13,that
screen,html.Screen,2_1_0_1_14,2022-05-10T16:19:39.235Z,,,,,,,,,,,,,,,,,53,,,,,,,,,,,,,,206.17800000001444,,response,,,,99,,,,,,,Space,keypress(Space),,,,,,,,---- -- ----- -- ------ - ------- --- ----------<br>------------- ------ ------ ---- ---- feeling ----- -- ----<br>-------- ------- -- ---------- --- - --- ----- ----- ----<br>---- --- --- ----- --- ---- ---- ------- ----- ---- -------<br>--- --- -- ----- -- --- ---- -- --- ---- -- ------ ------<br>--- ----- -- ----,214633.19999998808,214628.5,214405.708,214418.10000002384,214422.322,214639.415,,14,feeling
screen,html.Screen,2_1_0_1_15,2022-05-10T16:19:39.509Z,,,,,,,,,,,,,,,,,53,,,,,,,,,,,,,,263.08499999999185,,response,,,,99,,,,,,,Space,keypress(Space),,,,,,,,---- -- ----- -- ------ - ------- --- ----------<br>------------- ------ ------ ---- ---- ------- close -- ----<br>-------- ------- -- ---------- --- - --- ----- ----- ----<br>---- --- --- ----- --- ---- ---- ------- ----- ---- -------<br>--- --- -- ----- -- --- ---- -- --- ---- -- ------ ------<br>--- ----- -- ----,214907.10000002384,214902.5,214622.289,214634.39999997616,214639.415,214922.412,,15,close
screen,html.Screen,2_1_0_1_16,2022-05-10T16:19:39.759Z,,,,,,,,,,,,,,,,,53,,,,,,,,,,,,,,230.38800001190975,,response,,,,99,,,,,,,Space,keypress(Space),,,,,,,,---- -- ----- -- ------ - ------- --- ----------<br>------------- ------ ------ ---- ---- ------- ----- to ----<br>-------- ------- -- ---------- --- - --- ----- ----- ----<br>---- --- --- ----- --- ---- ---- ------- ----- ---- -------<br>--- --- -- ----- -- --- ---- -- --- ---- -- ------ ------<br>--- ----- -- ----,215157.80000001192,215152.80000001192,214905.538,214908.10000002384,214922.412,215172.261,,16,to
screen,html.Screen,2_1_0_1_17,2022-05-10T16:19:40.016Z,,,,,,,,,,,,,,,,,53,,,,,,,,,,,,,,237.43899998808047,,response,,,,99,,,,,,,Space,keypress(Space),,,,,,,,---- -- ----- -- ------ - ------- --- ----------<br>------------- ------ ------ ---- ---- ------- ----- -- your<br>-------- ------- -- ---------- --- - --- ----- ----- ----<br>---- --- --- ----- --- ---- ---- ------- ----- ---- -------<br>--- --- -- ----- -- --- ---- -- --- ---- -- ------ ------<br>--- ----- -- ----,215414.80000001192,215409.69999998808,215156.2,215158.89999997616,215172.261,215422.248,,17,your
screen,html.Screen,2_1_0_1_18,2022-05-10T16:19:40.277Z,,,,,,,,,,,,,,,,,53,,,,,,,,,,,,,,247.35200002384954,,response,,,,99,,,,,,,Space,keypress(Space),,,,,,,,---- -- ----- -- ------ - ------- --- ----------<br>------------- ------ ------ ---- ---- ------- ----- -- ----<br>romantic ------- -- ---------- --- - --- ----- ----- ----<br>---- --- --- ----- --- ---- ---- ------- ----- ---- -------<br>--- --- -- ----- -- --- ---- -- --- ---- -- ------ ------<br>--- ----- -- ----,215675.69999998808,215669.60000002384,215405.741,215415.89999997616,215422.248,215688.806,,18,romantic
screen,html.Screen,2_1_0_1_19,2022-05-10T16:19:40.537Z,,,,,,,,,,,,,,,,,53,,,,,,,,,,,,,,241.59399997614673,,response,,,,99,,,,,,,Space,keypress(Space),,,,,,,,---- -- ----- -- ------ - ------- --- ----------<br>------------- ------ ------ ---- ---- ------- ----- -- ----<br>-------- partner -- ---------- --- - --- ----- ----- ----<br>---- --- --- ----- --- ---- ---- ------- ----- ---- -------<br>--- --- -- ----- -- --- ---- -- --- ---- -- ------ ------<br>--- ----- -- ----,215935.60000002384,215930.39999997616,215672.466,215676.69999998808,215688.806,215955.425,,19,partner
screen,html.Screen,2_1_0_1_20,2022-05-10T16:19:40.750Z,,,,,,,,,,,,,,,,,53,,,,,,,,,,,,,,188.57500000001164,,response,,,,99,,,,,,,Space,keypress(Space),,,,,,,,---- -- ----- -- ------ - ------- --- ----------<br>------------- ------ ------ ---- ---- ------- ----- -- ----<br>-------- ------- is ---------- --- - --- ----- ----- ----<br>---- --- --- ----- --- ---- ---- ------- ----- ---- -------<br>--- --- -- ----- -- --- ---- -- --- ---- -- ------ ------<br>--- ----- -- ----,216148.80000001192,216144,215938.913,215936.69999998808,215955.425,216155.403,,20,is
screen,html.Screen,2_1_0_1_21,2022-05-10T16:19:40.981Z,,,,,,,,,,,,,,,,,53,,,,,,,,,,,,,,218.996999976167,,response,,,,99,,,,,,,Space,keypress(Space),,,,,,,,---- -- ----- -- ------ - ------- --- ----------<br>------------- ------ ------ ---- ---- ------- ----- -- ----<br>-------- ------- -- paramount. --- - --- ----- ----- ----<br>---- --- --- ----- --- ---- ---- ------- ----- ---- -------<br>--- --- -- ----- -- --- ---- -- --- ---- -- ------ ------<br>--- ----- -- ----,216379.39999997616,216374.39999997616,216138.888,216149.80000001192,216155.403,216439.197,,21,paramount.
screen,html.Screen,2_1_0_1_22,2022-05-10T16:19:41.216Z,,,,,,,,,,,,,,,,,53,,,,,,,,,,,,,,170.10300001193536,,response,,,,99,,,,,,,Space,keypress(Space),,,,,,,,---- -- ----- -- ------ - ------- --- ----------<br>------------- ------ ------ ---- ---- ------- ----- -- ----<br>-------- ------- -- ---------- But - --- ----- ----- ----<br>---- --- --- ----- --- ---- ---- ------- ----- ---- -------<br>--- --- -- ----- -- --- ---- -- --- ---- -- ------ ------<br>--- ----- -- ----,216614.5,216609.30000001192,216372.118,216381.30000001192,216439.197,216621.994,,22,But
screen,html.Screen,2_1_0_1_23,2022-05-10T16:19:41.457Z,,,,,,,,,,,,,,,,,53,,,,,,,,,,,,,,229.30600001191488,,response,,,,99,,,,,,,Space,keypress(Space),,,,,,,,---- -- ----- -- ------ - ------- --- ----------<br>------------- ------ ------ ---- ---- ------- ----- -- ----<br>-------- ------- -- ---------- --- a --- ----- ----- ----<br>---- --- --- ----- --- ---- ---- ------- ----- ---- -------<br>--- --- -- ----- -- --- ---- -- --- ---- -- ------ ------<br>--- ----- -- ----,216855.89999997616,216851.30000001192,216606.06,216615.60000002384,216621.994,216872.227,,23,a
screen,html.Screen,2_1_0_1_24,2022-05-10T16:19:41.699Z,,,,,,,,,,,,,,,,,53,,,,,,,,,,,,,,221.97299998806557,,response,,,,99,,,,,,,Space,keypress(Space),,,,,,,,---- -- ----- -- ------ - ------- --- ----------<br>------------- ------ ------ ---- ---- ------- ----- -- ----<br>-------- ------- -- ---------- --- - new ----- ----- ----<br>---- --- --- ----- --- ---- ---- ------- ----- ---- -------<br>--- --- -- ----- -- --- ---- -- --- ---- -- ------ ------<br>--- ----- -- ----,217097.30000001192,217094.19999998808,216855.467,216856.89999997616,216872.227,217105.223,,24,new
screen,html.Screen,2_1_0_1_25,2022-05-10T16:19:41.900Z,,,,,,,,,,,,,,,,,53,,,,,,,,,,,,,,188.0770000119228,,response,,,,99,,,,,,,Space,keypress(Space),,,,,,,,---- -- ----- -- ------ - ------- --- ----------<br>------------- ------ ------ ---- ---- ------- ----- -- ----<br>-------- ------- -- ---------- --- - --- study ----- ----<br>---- --- --- ----- --- ---- ---- ------- ----- ---- -------<br>--- --- -- ----- -- --- ---- -- --- ---- -- ------ ------<br>--- ----- -- ----,217298.39999997616,217293.30000001192,217089.073,217097.89999997616,217105.223,217305.23,,25,study
screen,html.Screen,2_1_0_1_26,2022-05-10T16:19:42.135Z,,,,,,,,,,,,,,,,,53,,,,,,,,,,,,,,222.9699999880686,,response,,,,99,,,,,,,Space,keypress(Space),,,,,,,,---- -- ----- -- ------ - ------- --- ----------<br>------------- ------ ------ ---- ---- ------- ----- -- ----<br>-------- ------- -- ---------- --- - --- ----- finds ----<br>---- --- --- ----- --- ---- ---- ------- ----- ---- -------<br>--- --- -- ----- -- --- ---- -- --- ---- -- ------ ------<br>--- ----- -- ----,217532.89999997616,217528.19999998808,217288.563,217299.60000002384,217305.23,217538.522,,26,finds
screen,html.Screen,2_1_0_1_27,2022-05-10T16:19:42.342Z,,,,,,,,,,,,,,,,,53,,,,,,,,,,,,,,197.4780000000028,,response,,,,99,,,,,,,Space,keypress(Space),,,,,,,,---- -- ----- -- ------ - ------- --- ----------<br>------------- ------ ------ ---- ---- ------- ----- -- ----<br>-------- ------- -- ---------- --- - --- ----- ----- that<br>---- --- --- ----- --- ---- ---- ------- ----- ---- -------<br>--- --- -- ----- -- --- ---- -- --- ---- -- ------ ------<br>--- ----- -- ----,217740.69999998808,217736,217521.947,217533.89999997616,217538.522,217755.157,,27,that
screen,html.Screen,2_1_0_1_28,2022-05-10T16:19:42.637Z,,,,,,,,,,,,,,,,,53,,,,,,,,,,,,,,273.7429999761516,,response,,,,99,,,,,,,Space,keypress(Space),,,,,,,,---- -- ----- -- ------ - ------- --- ----------<br>------------- ------ ------ ---- ---- ------- ----- -- ----<br>-------- ------- -- ---------- --- - --- ----- ----- ----<br>it's --- --- ----- --- ---- ---- ------- ----- ---- -------<br>--- --- -- ----- -- --- ---- -- --- ---- -- ------ ------<br>--- ----- -- ----,218035.39999997616,218028.89999997616,217738.787,217742.10000002384,217755.157,218056.506,,28,it's
screen,html.Screen,2_1_0_1_29,2022-05-10T16:19:42.912Z,,,,,,,,,,,,,,,,,53,,,,,,,,,,,,,,248.99400000000605,,response,,,,99,,,,,,,Space,keypress(Space),,,,,,,,---- -- ----- -- ------ - ------- --- ----------<br>------------- ------ ------ ---- ---- ------- ----- -- ----<br>-------- ------- -- ---------- --- - --- ----- ----- ----<br>---- not --- ----- --- ---- ---- ------- ----- ---- -------<br>--- --- -- ----- -- --- ---- -- --- ---- -- ------ ------<br>--- ----- -- ----,218310.30000001192,218305.5,218038.514,218036.39999997616,218056.506,218321.944,,29,not
screen,html.Screen,2_1_0_1_30,2022-05-10T16:19:43.082Z,,,,,,,,,,,,,,,,,53,,,,,,,,,,,,,,153.5560000000114,,response,,,,99,,,,,,,Space,keypress(Space),,,,,,,,---- -- ----- -- ------ - ------- --- ----------<br>------------- ------ ------ ---- ---- ------- ----- -- ----<br>-------- ------- -- ---------- --- - --- ----- ----- ----<br>---- --- how ----- --- ---- ---- ------- ----- ---- -------<br>--- --- -- ----- -- --- ---- -- --- ---- -- ------ ------<br>--- ----- -- ----,218480.30000001192,218475.5,218305.627,218311.39999997616,218321.944,218488.719,,30,how
screen,html.Screen,2_1_0_1_31,2022-05-10T16:19:43.320Z,,,,,,,,,,,,,,,,,53,,,,,,,,,,,,,,225.08100001190905,,response,,,,99,,,,,,,Space,keypress(Space),,,,,,,,---- -- ----- -- ------ - ------- --- ----------<br>------------- ------ ------ ---- ---- ------- ----- -- ----<br>-------- ------- -- ---------- --- - --- ----- ----- ----<br>---- --- --- close --- ---- ---- ------- ----- ---- -------<br>--- --- -- ----- -- --- ---- -- --- ---- -- ------ ------<br>--- ----- -- ----,218718.69999998808,218713.80000001192,218471.594,218481.39999997616,218488.719,218738.466,,31,close
screen,html.Screen,2_1_0_1_32,2022-05-10T16:19:43.738Z,,,,,,,,,,,,,,,,,53,,,,,,,,,,,,,,393.63400002385606,,response,,,,99,,,,,,,Space,keypress(Space),,,,,,,,---- -- ----- -- ------ - ------- --- ----------<br>------------- ------ ------ ---- ---- ------- ----- -- ----<br>-------- ------- -- ---------- --- - --- ----- ----- ----<br>---- --- --- ----- you ---- ---- ------- ----- ---- -------<br>--- --- -- ----- -- --- ---- -- --- ---- -- ------ ------<br>--- ----- -- ----,219136.69999998808,219132.10000002384,218721.607,218719.69999998808,218738.466,219154.923,,32,you
screen,html.Screen,2_1_0_1_33,2022-05-10T16:19:43.963Z,,,,,,,,,,,,,,,,,53,,,,,,,,,,,,,,201.87700001191115,,response,,,,99,,,,,,,Space,keypress(Space),,,,,,,,---- -- ----- -- ------ - ------- --- ----------<br>------------- ------ ------ ---- ---- ------- ----- -- ----<br>-------- ------- -- ---------- --- - --- ----- ----- ----<br>---- --- --- ----- --- feel ---- ------- ----- ---- -------<br>--- --- -- ----- -- --- ---- -- --- ---- -- ------ ------<br>--- ----- -- ----,219361.60000002384,219356.80000001192,219138.248,219137.80000001192,219154.923,219371.69,,33,feel
screen,html.Screen,2_1_0_1_34,2022-05-10T16:19:44.177Z,,,,,,,,,,,,,,,,,53,,,,,,,,,,,,,,198.1100000119186,,response,,,,99,,,,,,,Space,keypress(Space),,,,,,,,---- -- ----- -- ------ - ------- --- ----------<br>------------- ------ ------ ---- ---- ------- ----- -- ----<br>-------- ------- -- ---------- --- - --- ----- ----- ----<br>---- --- --- ----- --- ---- that ------- ----- ---- -------<br>--- --- -- ----- -- --- ---- -- --- ---- -- ------ ------<br>--- ----- -- ----,219575.19999998808,219569.80000001192,219355.278,219362.69999998808,219371.69,219588.348,,34,that
screen,html.Screen,2_1_0_1_35,2022-05-10T16:19:44.410Z,,,,,,,,,,,,,,,,,53,,,,,,,,,,,,,,214.85199998808093,,response,,,,99,,,,,,,Space,keypress(Space),,,,,,,,---- -- ----- -- ------ - ------- --- ----------<br>------------- ------ ------ ---- ---- ------- ----- -- ----<br>-------- ------- -- ---------- --- - --- ----- ----- ----<br>---- --- --- ----- --- ---- ---- matters ----- ---- -------<br>--- --- -- ----- -- --- ---- -- --- ---- -- ------ ------<br>--- ----- -- ----,219807.89999997616,219803.19999998808,219572.018,219576.19999998808,219588.348,219821.433,,35,matters
screen,html.Screen,2_1_0_1_36,2022-05-10T16:19:44.655Z,,,,,,,,,,,,,,,,,53,,,,,,,,,,,,,,226.56700000001,,response,,,,99,,,,,,,Space,keypress(Space),,,,,,,,"---- -- ----- -- ------ - ------- --- ----------<br>------------- ------ ------ ---- ---- ------- ----- -- ----<br>-------- ------- -- ---------- --- - --- ----- ----- ----<br>---- --- --- ----- --- ---- ---- ------- most, ---- -------<br>--- --- -- ----- -- --- ---- -- --- ---- -- ------ ------<br>--- ----- -- ----",220052.89999997616,220048,219805.212,219808.39999997616,219821.433,220073.098,,36,"most,"
screen,html.Screen,2_1_0_1_37,2022-05-10T16:19:44.879Z,,,,,,,,,,,,,,,,,53,,,,,,,,,,,,,,199.50200002384372,,response,,,,99,,,,,,,Space,keypress(Space),,,,,,,,---- -- ----- -- ------ - ------- --- ----------<br>------------- ------ ------ ---- ---- ------- ----- -- ----<br>-------- ------- -- ---------- --- - --- ----- ----- ----<br>---- --- --- ----- --- ---- ---- ------- ----- it's -------<br>--- --- -- ----- -- --- ---- -- --- ---- -- ------ ------<br>--- ----- -- ----,220277.5,220272.60000002384,220054.699,220054,220073.098,220288.391,,37,it's
screen,html.Screen,2_1_0_1_38,2022-05-10T16:19:45.103Z,,,,,,,,,,,,,,,,,53,,,,,,,,,,,,,,207.50899997615488,,response,,,,99,,,,,,,Space,keypress(Space),,,,,,,,---- -- ----- -- ------ - ------- --- ----------<br>------------- ------ ------ ---- ---- ------- ----- -- ----<br>-------- ------- -- ---------- --- - --- ----- ----- ----<br>---- --- --- ----- --- ---- ---- ------- ----- ---- whether<br>--- --- -- ----- -- --- ---- -- --- ---- -- ------ ------<br>--- ----- -- ----,220501.30000001192,220495.89999997616,220271.381,220278.60000002384,220288.391,220538.109,,38,whether
screen,html.Screen,2_1_0_1_39,2022-05-10T16:19:45.351Z,,,,,,,,,,,,,,,,,53,,,,,,,,,,,,,,205.09099998808233,,response,,,,99,,,,,,,Space,keypress(Space),,,,,,,,---- -- ----- -- ------ - ------- --- ----------<br>------------- ------ ------ ---- ---- ------- ----- -- ----<br>-------- ------- -- ---------- --- - --- ----- ----- ----<br>---- --- --- ----- --- ---- ---- ------- ----- ---- -------<br>you --- -- ----- -- --- ---- -- --- ---- -- ------ ------<br>--- ----- -- ----,220749,220743.19999998808,220521.727,220502.69999998808,220538.109,220755.038,,39,you
screen,html.Screen,2_1_0_1_40,2022-05-10T16:19:45.604Z,,,,,,,,,,,,,,,,,53,,,,,,,,,,,,,,242.26200001192046,,response,,,,99,,,,,,,Space,keypress(Space),,,,,,,,---- -- ----- -- ------ - ------- --- ----------<br>------------- ------ ------ ---- ---- ------- ----- -- ----<br>-------- ------- -- ---------- --- - --- ----- ----- ----<br>---- --- --- ----- --- ---- ---- ------- ----- ---- -------<br>--- are -- ----- -- --- ---- -- --- ---- -- ------ ------<br>--- ----- -- ----,221002.5,220997.30000001192,220738.355,220750.19999998808,220755.038,221021.545,,40,are
screen,html.Screen,2_1_0_1_41,2022-05-10T16:19:45.850Z,,,,,,,,,,,,,,,,,53,,,,,,,,,,,,,,221.85499997614534,,response,,,,99,,,,,,,Space,keypress(Space),,,,,,,,---- -- ----- -- ------ - ------- --- ----------<br>------------- ------ ------ ---- ---- ------- ----- -- ----<br>-------- ------- -- ---------- --- - --- ----- ----- ----<br>---- --- --- ----- --- ---- ---- ------- ----- ---- -------<br>--- --- as ----- -- --- ---- -- --- ---- -- ------ ------<br>--- ----- -- ----,221248.19999998808,221243.39999997616,221004.801,221003.60000002384,221021.545,221254.661,,41,as
screen,html.Screen,2_1_0_1_42,2022-05-10T16:19:46.077Z,,,,,,,,,,,,,,,,,53,,,,,,,,,,,,,,215.73899997616536,,response,,,,99,,,,,,,Space,keypress(Space),,,,,,,,---- -- ----- -- ------ - ------- --- ----------<br>------------- ------ ------ ---- ---- ------- ----- -- ----<br>-------- ------- -- ---------- --- - --- ----- ----- ----<br>---- --- --- ----- --- ---- ---- ------- ----- ---- -------<br>--- --- -- close -- --- ---- -- --- ---- -- ------ ------<br>--- ----- -- ----,221475.19999998808,221470.39999997616,221238.272,221249.30000001192,221254.661,221488.005,,42,close
screen,html.Screen,2_1_0_1_43,2022-05-10T16:19:46.331Z,,,,,,,,,,,,,,,,,53,,,,,,,,,,,,,,238.69499998807441,,response,,,,99,,,,,,,Space,keypress(Space),,,,,,,,---- -- ----- -- ------ - ------- --- ----------<br>------------- ------ ------ ---- ---- ------- ----- -- ----<br>-------- ------- -- ---------- --- - --- ----- ----- ----<br>---- --- --- ----- --- ---- ---- ------- ----- ---- -------<br>--- --- -- ----- as --- ---- -- --- ---- -- ------ ------<br>--- ----- -- ----,221729.80000001192,221726.69999998808,221471.509,221476.19999998808,221488.005,221737.809,,43,as
screen,html.Screen,2_1_0_1_44,2022-05-10T16:19:46.554Z,,,,,,,,,,,,,,,,,53,,,,,,,,,,,,,,209.3909999880707,,response,,,,99,,,,,,,Space,keypress(Space),,,,,,,,---- -- ----- -- ------ - ------- --- ----------<br>------------- ------ ------ ---- ---- ------- ----- -- ----<br>-------- ------- -- ---------- --- - --- ----- ----- ----<br>---- --- --- ----- --- ---- ---- ------- ----- ---- -------<br>--- --- -- ----- -- you ---- -- --- ---- -- ------ ------<br>--- ----- -- ----,221952.10000002384,221947.19999998808,221721.216,221730.5,221737.809,221971.73,,44,you
screen,html.Screen,2_1_0_1_45,2022-05-10T16:19:46.805Z,,,,,,,,,,,,,,,,,53,,,,,,,,,,,,,,226.07000001191045,,response,,,,99,,,,,,,Space,keypress(Space),,,,,,,,---- -- ----- -- ------ - ------- --- ----------<br>------------- ------ ------ ---- ---- ------- ----- -- ----<br>-------- ------- -- ---------- --- - --- ----- ----- ----<br>---- --- --- ----- --- ---- ---- ------- ----- ---- -------<br>--- --- -- ----- -- --- want -- --- ---- -- ------ ------<br>--- ----- -- ----,222202.89999997616,222197.80000001192,221954.424,221953.19999998808,221971.73,222222.565,,45,want
screen,html.Screen,2_1_0_1_46,2022-05-10T16:19:47.067Z,,,,,,,,,,,,,,,,,53,,,,,,,,,,,,,,238.13499998807674,,response,,,,99,,,,,,,Space,keypress(Space),,,,,,,,---- -- ----- -- ------ - ------- --- ----------<br>------------- ------ ------ ---- ---- ------- ----- -- ----<br>-------- ------- -- ---------- --- - --- ----- ----- ----<br>---- --- --- ----- --- ---- ---- ------- ----- ---- -------<br>--- --- -- ----- -- --- ---- to --- ---- -- ------ ------<br>--- ----- -- ----,222465.69999998808,222460.69999998808,222205.268,222204,222222.565,222471.389,,46,to
screen,html.Screen,2_1_0_1_47,2022-05-10T16:19:47.323Z,,,,,,,,,,,,,,,,,53,,,,,,,,,,,,,,246.91100001192535,,response,,,,99,,,,,,,Space,keypress(Space),,,,,,,,"---- -- ----- -- ------ - ------- --- ----------<br>------------- ------ ------ ---- ---- ------- ----- -- ----<br>-------- ------- -- ---------- --- - --- ----- ----- ----<br>---- --- --- ----- --- ---- ---- ------- ----- ---- -------<br>--- --- -- ----- -- --- ---- -- be, ---- -- ------ ------<br>--- ----- -- ----",222721.60000002384,222718.30000001192,222454.529,222466.80000001192,222471.389,222737.848,,47,"be,"
screen,html.Screen,2_1_0_1_48,2022-05-10T16:19:47.601Z,,,,,,,,,,,,,,,,,53,,,,,,,,,,,,,,256.15200000000186,,response,,,,99,,,,,,,Space,keypress(Space),,,,,,,,---- -- ----- -- ------ - ------- --- ----------<br>------------- ------ ------ ---- ---- ------- ----- -- ----<br>-------- ------- -- ---------- --- - --- ----- ----- ----<br>---- --- --- ----- --- ---- ---- ------- ----- ---- -------<br>--- --- -- ----- -- --- ---- -- --- even -- ------ ------<br>--- ----- -- ----,222998.89999997616,222994,222721.283,222722,222737.848,223004.508,,48,even
screen,html.Screen,2_1_0_1_49,2022-05-10T16:19:47.794Z,,,,,,,,,,,,,,,,,53,,,,,,,,,,,,,,182.7920000119193,,response,,,,99,,,,,,,Space,keypress(Space),,,,,,,,---- -- ----- -- ------ - ------- --- ----------<br>------------- ------ ------ ---- ---- ------- ----- -- ----<br>-------- ------- -- ---------- --- - --- ----- ----- ----<br>---- --- --- ----- --- ---- ---- ------- ----- ---- -------<br>--- --- -- ----- -- --- ---- -- --- ---- if ------ ------<br>--- ----- -- ----,223192.10000002384,223187.30000001192,222987.851,222999.89999997616,223004.508,223204.301,,49,if
screen,html.Screen,2_1_0_1_50,2022-05-10T16:19:48.077Z,,,,,,,,,,,,,,,,,53,,,,,,,,,,,,,,265.3989999880723,,response,,,,99,,,,,,,Space,keypress(Space),,,,,,,,---- -- ----- -- ------ - ------- --- ----------<br>------------- ------ ------ ---- ---- ------- ----- -- ----<br>-------- ------- -- ---------- --- - --- ----- ----- ----<br>---- --- --- ----- --- ---- ---- ------- ----- ---- -------<br>--- --- -- ----- -- --- ---- -- --- ---- -- that's ------<br>--- ----- -- ----,223475.30000001192,223469.69999998808,223188.167,223193.30000001192,223204.301,223487.679,,50,that's
screen,html.Screen,2_1_0_1_51,2022-05-10T16:19:48.352Z,,,,,,,,,,,,,,,,,53,,,,,,,,,,,,,,258.02099998807535,,response,,,,99,,,,,,,Space,keypress(Space),,,,,,,,---- -- ----- -- ------ - ------- --- ----------<br>------------- ------ ------ ---- ---- ------- ----- -- ----<br>-------- ------- -- ---------- --- - --- ----- ----- ----<br>---- --- --- ----- --- ---- ---- ------- ----- ---- -------<br>--- --- -- ----- -- --- ---- -- --- ---- -- ------ really<br>--- ----- -- ----,223750.60000002384,223745.69999998808,223470.833,223476.39999997616,223487.679,223770.862,,51,really
screen,html.Screen,2_1_0_1_52,2022-05-10T16:19:48.697Z,,,,,,,,,,,,,,,,,53,,,,,,,,,,,,,,318.83799998808536,,response,,,,99,,,,,,,Space,keypress(Space),,,,,,,,---- -- ----- -- ------ - ------- --- ----------<br>------------- ------ ------ ---- ---- ------- ----- -- ----<br>-------- ------- -- ---------- --- - --- ----- ----- ----<br>---- --- --- ----- --- ---- ---- ------- ----- ---- -------<br>--- --- -- ----- -- --- ---- -- --- ---- -- ------ ------<br>not ----- -- ----,224095,224089.69999998808,223754.245,223751.89999997616,223770.862,224104.344,,52,not
screen,html.Screen,2_1_0_1_53,2022-05-10T16:19:48.972Z,,,,,,,,,,,,,,,,,53,,,,,,,,,,,,,,260.6559999999881,,response,,,,99,,,,,,,Space,keypress(Space),,,,,,,,---- -- ----- -- ------ - ------- --- ----------<br>------------- ------ ------ ---- ---- ------- ----- -- ----<br>-------- ------- -- ---------- --- - --- ----- ----- ----<br>---- --- --- ----- --- ---- ---- ------- ----- ---- -------<br>--- --- -- ----- -- --- ---- -- --- ---- -- ------ ------<br>--- close -- ----,224370,224365,224087.856,224096.10000002384,224104.344,224387.569,,53,close
screen,html.Screen,2_1_0_1_54,2022-05-10T16:19:49.304Z,,,,,,,,,,,,,,,,,53,,,,,,,,,,,,,,310.53100002385327,,response,,,,99,,,,,,,Space,keypress(Space),,,,,,,,---- -- ----- -- ------ - ------- --- ----------<br>------------- ------ ------ ---- ---- ------- ----- -- ----<br>-------- ------- -- ---------- --- - --- ----- ----- ----<br>---- --- --- ----- --- ---- ---- ------- ----- ---- -------<br>--- --- -- ----- -- --- ---- -- --- ---- -- ------ ------<br>--- ----- at ----,224702.80000001192,224698.10000002384,224370.721,224371.10000002384,224387.569,224720.799,,54,at
screen,html.Screen,2_1_0_1_55,2022-05-10T16:19:49.742Z,,,,,,,,,,,,,,,,,53,,,,,,,,,,,,,,414.90099998808,,response,,,,99,,,,,,,Space,keypress(Space),,,,,,,,---- -- ----- -- ------ - ------- --- ----------<br>------------- ------ ------ ---- ---- ------- ----- -- ----<br>-------- ------- -- ---------- --- - --- ----- ----- ----<br>---- --- --- ----- --- ---- ---- ------- ----- ---- -------<br>--- --- -- ----- -- --- ---- -- --- ---- -- ------ ------<br>--- ----- -- all.,225140.5,225135.69999998808,224704.317,224703.80000001192,224720.799,225203.974,,55,all.
Item 99,flow.Loop,2_1_0_1,2022-05-10T16:19:49.745Z,,,,,,,,,,,,,,,,,,,,,,,,,,,,,,,15646.028999988077,,completion,,,,,B,,,,,,,,,,,silence,,,,,225143.19999998808,225135.69999998808,209223.403,209244.39999997616,209489.671,225203.974,,,
Question 1,html.Screen,2_1_0_2,2022-05-10T16:19:55.238Z,,,,,,,,,,,,,,,,,,,,,,,,,,,,true,FALSE,,5428.725999988092,,response,,,,99,B,,,,,,FALSE,click #choice-2,,,,silence,,,,,230635.89999997616,230632.69999998808,225137.494,225144.39999997616,225203.974,230669.686,,,
Question 2,html.Screen,2_1_0_3,2022-05-10T16:19:59.573Z,,,,,,,,,,,,,,,,,,,,,,,,,,,,true,TRUE,,4298.213999976171,,response,,,,99,B,,,,,,TRUE,click #choice-1,,,,silence,,,,,234971.10000002384,234967.89999997616,230620.043,230638.10000002384,230669.686,234985.813,,,
Item 99,flow.Sequence,2_1_0,2022-05-10T16:19:59.573Z,,,,,,,,,,,,,,,,,,,,,,,,,,,,,,,35709.89599997617,,completion,,,,,,,,,,,,,,,,,,,,,234971.5,234967.89999997616,199158.082,199165.60000002384,199258.004,234985.813,,,
Holding screen,html.Screen,2_1_1_0,2022-05-10T16:20:09.572Z,,,,,,,,,,,,,,,,,,,,,,,,,,,,,,,10031.841000000015,,timeout,,,,,,,,,,,,,,,,,,,,,244970.69999998808,244968.156,234969.011,234971.80000001192,234985.813,245017.654,,,
screen,html.Screen,2_1_1_1_0,2022-05-10T16:20:10.433Z,,,,,,,,,,,,,,,,,54,,,,,,,,,,,,,,809.7459999761486,,response,,,,100,,,,,,,Space,keypress(Space),,,,,,,,At --- ---- --- ------ ----- ------- ---- -- --- ------- --<br>------- ---------- ------ -- ----- -- ----- -- ---- ------<br>--- ----- --- --- ------ -------- ----- --- ------ ----- --<br>----- ----- ---------- --- --- ------ ------ ---- -- ------<br>------- --- ------ ----- --- ---- ------- -- ---- --- --<br>------- ------,245831.60000002384,245827.39999997616,244968.156,244972.19999998808,245017.654,245850.689,,0,At
screen,html.Screen,2_1_1_1_1,2022-05-10T16:20:10.709Z,,,,,,,,,,,,,,,,,54,,,,,,,,,,,,,,252.1110000119079,,response,,,,100,,,,,,,Space,keypress(Space),,,,,,,,-- the ---- --- ------ ----- ------- ---- -- --- ------- --<br>------- ---------- ------ -- ----- -- ----- -- ---- ------<br>--- ----- --- --- ------ -------- ----- --- ------ ----- --<br>----- ----- ---------- --- --- ------ ------ ---- -- ------<br>------- --- ------ ----- --- ---- ------- -- ---- --- --<br>------- ------,246107.30000001192,246102.80000001192,245834.34,245833,245850.689,246117.534,,1,the
screen,html.Screen,2_1_1_1_2,2022-05-10T16:20:10.971Z,,,,,,,,,,,,,,,,,54,,,,,,,,,,,,,,247.4659999999858,,response,,,,100,,,,,,,Space,keypress(Space),,,,,,,,-- --- time --- ------ ----- ------- ---- -- --- ------- --<br>------- ---------- ------ -- ----- -- ----- -- ---- ------<br>--- ----- --- --- ------ -------- ----- --- ------ ----- --<br>----- ----- ---------- --- --- ------ ------ ---- -- ------<br>------- --- ------ ----- --- ---- ------- -- ---- --- --<br>------- ------,246369.60000002384,246365,246100.805,246108.39999997616,246117.534,246384.816,,2,time
screen,html.Screen,2_1_1_1_3,2022-05-10T16:20:11.219Z,,,,,,,,,,,,,,,,,54,,,,,,,,,,,,,,228.4840000119293,,response,,,,100,,,,,,,Space,keypress(Space),,,,,,,,-- --- ---- the ------ ----- ------- ---- -- --- ------- --<br>------- ---------- ------ -- ----- -- ----- -- ---- ------<br>--- ----- --- --- ------ -------- ----- --- ------ ----- --<br>----- ----- ---------- --- --- ------ ------ ---- -- ------<br>------- --- ------ ----- --- ---- ------- -- ---- --- --<br>------- ------,246617.39999997616,246613.30000001192,246367.512,246370.69999998808,246384.816,246633.951,,3,the
screen,html.Screen,2_1_1_1_4,2022-05-10T16:20:11.463Z,,,,,,,,,,,,,,,,,54,,,,,,,,,,,,,,222.24899998807814,,response,,,,100,,,,,,,Space,keypress(Space),,,,,,,,-- --- ---- --- French ----- ------- ---- -- --- ------- --<br>------- ---------- ------ -- ----- -- ----- -- ---- ------<br>--- ----- --- --- ------ -------- ----- --- ------ ----- --<br>----- ----- ---------- --- --- ------ ------ ---- -- ------<br>------- --- ------ ----- --- ---- ------- -- ---- --- --<br>------- ------,246861.80000001192,246856.19999998808,246617.545,246618.5,246633.951,246883.878,,4,French
screen,html.Screen,2_1_1_1_5,2022-05-10T16:20:11.687Z,,,,,,,,,,,,,,,,,54,,,,,,,,,,,,,,197.3219999880821,,response,,,,100,,,,,,,Space,keypress(Space),,,,,,,,-- --- ---- --- ------ crown ------- ---- -- --- ------- --<br>------- ---------- ------ -- ----- -- ----- -- ---- ------<br>--- ----- --- --- ------ -------- ----- --- ------ ----- --<br>----- ----- ---------- --- --- ------ ------ ---- -- ------<br>------- --- ------ ----- --- ---- ------- -- ---- --- --<br>------- ------,247085.30000001192,247081.19999998808,246867.46,246863.10000002384,246883.878,247101.335,,5,crown
screen,html.Screen,2_1_1_1_6,2022-05-10T16:20:11.881Z,,,,,,,,,,,,,,,,,54,,,,,,,,,,,,,,173.16500000000815,,response,,,,100,,,,,,,Space,keypress(Space),,,,,,,,-- --- ---- --- ------ ----- secured ---- -- --- ------- --<br>------- ---------- ------ -- ----- -- ----- -- ---- ------<br>--- ----- --- --- ------ -------- ----- --- ------ ----- --<br>----- ----- ---------- --- --- ------ ------ ---- -- ------<br>------- --- ------ ----- --- ---- ------- -- ---- --- --<br>------- ------,247279.19999998808,247274.5,247084.517,247086.39999997616,247101.335,247317.486,,6,secured
screen,html.Screen,2_1_1_1_7,2022-05-10T16:20:12.101Z,,,,,,,,,,,,,,,,,54,,,,,,,,,,,,,,176.8140000119165,,response,,,,100,,,,,,,Space,keypress(Space),,,,,,,,-- --- ---- --- ------ ----- ------- much -- --- ------- --<br>------- ---------- ------ -- ----- -- ----- -- ---- ------<br>--- ----- --- --- ------ -------- ----- --- ------ ----- --<br>----- ----- ---------- --- --- ------ ------ ---- -- ------<br>------- --- ------ ----- --- ---- ------- -- ---- --- --<br>------- ------,247498.89999997616,247494.30000001192,247313.496,247280.19999998808,247317.486,247517.121,,7,much
screen,html.Screen,2_1_1_1_8,2022-05-10T16:20:12.301Z,,,,,,,,,,,,,,,,,54,,,,,,,,,,,,,,177.7789999761444,,response,,,,100,,,,,,,Space,keypress(Space),,,,,,,,-- --- ---- --- ------ ----- ------- ---- of --- ------- --<br>------- ---------- ------ -- ----- -- ----- -- ---- ------<br>--- ----- --- --- ------ -------- ----- --- ------ ----- --<br>----- ----- ---------- --- --- ------ ------ ---- -- ------<br>------- --- ------ ----- --- ---- ------- -- ---- --- --<br>------- ------,247699.5,247694.89999997616,247500.663,247500,247517.121,247718.167,,8,of
screen,html.Screen,2_1_1_1_9,2022-05-10T16:20:12.541Z,,,,,,,,,,,,,,,,,54,,,,,,,,,,,,,,216.33300000001327,,response,,,,100,,,,,,,Space,keypress(Space),,,,,,,,-- --- ---- --- ------ ----- ------- ---- -- its ------- --<br>------- ---------- ------ -- ----- -- ----- -- ---- ------<br>--- ----- --- --- ------ -------- ----- --- ------ ----- --<br>----- ----- ---------- --- --- ------ ------ ---- -- ------<br>------- --- ------ ----- --- ---- ------- -- ---- --- --<br>------- ------,247939.39999997616,247934.5,247700.355,247700.60000002384,247718.167,247950.764,,9,its
screen,html.Screen,2_1_1_1_10,2022-05-10T16:20:12.756Z,,,,,,,,,,,,,,,,,54,,,,,,,,,,,,,,198.33600002384628,,response,,,,100,,,,,,,Space,keypress(Space),,,,,,,,-- --- ---- --- ------ ----- ------- ---- -- --- revenue --<br>------- ---------- ------ -- ----- -- ----- -- ---- ------<br>--- ----- --- --- ------ -------- ----- --- ------ ----- --<br>----- ----- ---------- --- --- ------ ------ ---- -- ------<br>------- --- ------ ----- --- ---- ------- -- ---- --- --<br>------- ------,248154.10000002384,248149.10000002384,247933.721,247940.39999997616,247950.764,248167.342,,10,revenue
screen,html.Screen,2_1_1_1_11,2022-05-10T16:20:13.022Z,,,,,,,,,,,,,,,,,54,,,,,,,,,,,,,,247.95800001191674,,response,,,,100,,,,,,,Space,keypress(Space),,,,,,,,-- --- ---- --- ------ ----- ------- ---- -- --- ------- by<br>------- ---------- ------ -- ----- -- ----- -- ---- ------<br>--- ----- --- --- ------ -------- ----- --- ------ ----- --<br>----- ----- ---------- --- --- ------ ------ ---- -- ------<br>------- --- ------ ----- --- ---- ------- -- ---- --- --<br>------- ------,248420,248415.30000001192,248150.413,248155.19999998808,248167.342,248433.726,,11,by
screen,html.Screen,2_1_1_1_12,2022-05-10T16:20:13.268Z,,,,,,,,,,,,,,,,,54,,,,,,,,,,,,,,229.7740000000049,,response,,,,100,,,,,,,Space,keypress(Space),,,,,,,,-- --- ---- --- ------ ----- ------- ---- -- --- ------- --<br>issuing ---------- ------ -- ----- -- ----- -- ---- ------<br>--- ----- --- --- ------ -------- ----- --- ------ ----- --<br>----- ----- ---------- --- --- ------ ------ ---- -- ------<br>------- --- ------ ----- --- ---- ------- -- ---- --- --<br>------- ------,248666.39999997616,248663.5,248417.06,248421.19999998808,248433.726,248683.873,,12,issuing
screen,html.Screen,2_1_1_1_13,2022-05-10T16:20:13.547Z,,,,,,,,,,,,,,,,,54,,,,,,,,,,,,,,256.32699998808675,,response,,,,100,,,,,,,Space,keypress(Space),,,,,,,,-- --- ---- --- ------ ----- ------- ---- -- --- ------- --<br>------- government ------ -- ----- -- ----- -- ---- ------<br>--- ----- --- --- ------ -------- ----- --- ------ ----- --<br>----- ----- ---------- --- --- ------ ------ ---- -- ------<br>------- --- ------ ----- --- ---- ------- -- ---- --- --<br>------- ------,248945.5,248940.19999998808,248666.946,248667.5,248683.873,248968.833,,13,government
screen,html.Screen,2_1_1_1_14,2022-05-10T16:20:13.819Z,,,,,,,,,,,,,,,,,54,,,,,,,,,,,,,,243.66699999998673,,response,,,,100,,,,,,,Space,keypress(Space),,,,,,,,-- --- ---- --- ------ ----- ------- ---- -- --- ------- --<br>------- ---------- bonds. -- ----- -- ----- -- ---- ------<br>--- ----- --- --- ------ -------- ----- --- ------ ----- --<br>----- ----- ---------- --- --- ------ ------ ---- -- ------<br>------- --- ------ ----- --- ---- ------- -- ---- --- --<br>------- ------,249217.19999998808,249212.5,248933.791,248946.69999998808,248968.833,249233.936,,14,bonds.
screen,html.Screen,2_1_1_1_15,2022-05-10T16:20:14.111Z,,,,,,,,,,,,,,,,,54,,,,,,,,,,,,,,270.06400000001304,,response,,,,100,,,,,,,Space,keypress(Space),,,,,,,,-- --- ---- --- ------ ----- ------- ---- -- --- ------- --<br>------- ---------- ------ In ----- -- ----- -- ---- ------<br>--- ----- --- --- ------ -------- ----- --- ------ ----- --<br>----- ----- ---------- --- --- ------ ------ ---- -- ------<br>------- --- ------ ----- --- ---- ------- -- ---- --- --<br>------- ------,249509,249504,249216.836,249218.30000001192,249233.936,249516.843,,15,In
screen,html.Screen,2_1_1_1_16,2022-05-10T16:20:14.472Z,,,,,,,,,,,,,,,,,54,,,,,,,,,,,,,,347.95700001192745,,response,,,,100,,,,,,,Space,keypress(Space),,,,,,,,"-- --- ---- --- ------ ----- ------- ---- -- --- ------- --<br>------- ---------- ------ -- 1727, -- ----- -- ---- ------<br>--- ----- --- --- ------ -------- ----- --- ------ ----- --<br>----- ----- ---------- --- --- ------ ------ ---- -- ------<br>------- --- ------ ----- --- ---- ------- -- ---- --- --<br>------- ------",249870.10000002384,249864.80000001192,249500.974,249510.10000002384,249516.843,249883.649,,16,"1727,"
screen,html.Screen,2_1_1_1_17,2022-05-10T16:20:14.733Z,,,,,,,,,,,,,,,,,54,,,,,,,,,,,,,,242.45100002383697,,response,,,,100,,,,,,,Space,keypress(Space),,,,,,,,-- --- ---- --- ------ ----- ------- ---- -- --- ------- --<br>------- ---------- ------ -- ----- in ----- -- ---- ------<br>--- ----- --- --- ------ -------- ----- --- ------ ----- --<br>----- ----- ---------- --- --- ------ ------ ---- -- ------<br>------- --- ------ ----- --- ---- ------- -- ---- --- --<br>------- ------,250131.10000002384,250126.10000002384,249866.897,249871.19999998808,249883.649,250150.05,,17,in
screen,html.Screen,2_1_1_1_18,2022-05-10T16:20:15.046Z,,,,,,,,,,,,,,,,,54,,,,,,,,,,,,,,289.0500000238535,,response,,,,100,,,,,,,Space,keypress(Space),,,,,,,,-- --- ---- --- ------ ----- ------- ---- -- --- ------- --<br>------- ---------- ------ -- ----- -- order -- ---- ------<br>--- ----- --- --- ------ -------- ----- --- ------ ----- --<br>----- ----- ---------- --- --- ------ ------ ---- -- ------<br>------- --- ------ ----- --- ---- ------- -- ---- --- --<br>------- ------,250444.19999998808,250439.10000002384,250133.517,250132.10000002384,250150.05,250450.021,,18,order
screen,html.Screen,2_1_1_1_19,2022-05-10T16:20:15.311Z,,,,,,,,,,,,,,,,,54,,,,,,,,,,,,,,253.97899999999208,,response,,,,100,,,,,,,Space,keypress(Space),,,,,,,,-- --- ---- --- ------ ----- ------- ---- -- --- ------- --<br>------- ---------- ------ -- ----- -- ----- to ---- ------<br>--- ----- --- --- ------ -------- ----- --- ------ ----- --<br>----- ----- ---------- --- --- ------ ------ ---- -- ------<br>------- --- ------ ----- --- ---- ------- -- ---- --- --<br>------- ------,250709,250704,250433.266,250445.19999998808,250450.021,250716.641,,19,to
screen,html.Screen,2_1_1_1_20,2022-05-10T16:20:15.564Z,,,,,,,,,,,,,,,,,54,,,,,,,,,,,,,,240.25899997615488,,response,,,,100,,,,,,,Space,keypress(Space),,,,,,,,-- --- ---- --- ------ ----- ------- ---- -- --- ------- --<br>------- ---------- ------ -- ----- -- ----- -- save ------<br>--- ----- --- --- ------ -------- ----- --- ------ ----- --<br>----- ----- ---------- --- --- ------ ------ ---- -- ------<br>------- --- ------ ----- --- ---- ------- -- ---- --- --<br>------- ------,250961.89999997616,250956.89999997616,250700.437,250710.30000001192,250716.641,251001.74,,20,save
screen,html.Screen,2_1_1_1_21,2022-05-10T16:20:15.818Z,,,,,,,,,,,,,,,,,54,,,,,,,,,,,,,,209.36000002385117,,response,,,,100,,,,,,,Space,keypress(Space),,,,,,,,"-- --- ---- --- ------ ----- ------- ---- -- --- ------- --<br>------- ---------- ------ -- ----- -- ----- -- ---- money,<br>--- ----- --- --- ------ -------- ----- --- ------ ----- --<br>----- ----- ---------- --- --- ------ ------ ---- -- ------<br>------- --- ------ ----- --- ---- ------- -- ---- --- --<br>------- ------",251216,251211.10000002384,250990.006,250963.10000002384,251001.74,251233.368,,21,"money,"
screen,html.Screen,2_1_1_1_22,2022-05-10T16:20:16.162Z,,,,,,,,,,,,,,,,,54,,,,,,,,,,,,,,322.2320000238542,,response,,,,100,,,,,,,Space,keypress(Space),,,,,,,,-- --- ---- --- ------ ----- ------- ---- -- --- ------- --<br>------- ---------- ------ -- ----- -- ----- -- ---- ------<br>the ----- --- --- ------ -------- ----- --- ------ ----- --<br>----- ----- ---------- --- --- ------ ------ ---- -- ------<br>------- --- ------ ----- --- ---- ------- -- ---- --- --<br>------- ------,251560.39999997616,251555.60000002384,251217.091,251217.10000002384,251233.368,251566.508,,22,the
screen,html.Screen,2_1_1_1_23,2022-05-10T16:20:16.492Z,,,,,,,,,,,,,,,,,54,,,,,,,,,,,,,,318.0920000238402,,response,,,,100,,,,,,,Space,keypress(Space),,,,,,,,-- --- ---- --- ------ ----- ------- ---- -- --- ------- --<br>------- ---------- ------ -- ----- -- ----- -- ---- ------<br>--- state --- --- ------ -------- ----- --- ------ ----- --<br>----- ----- ---------- --- --- ------ ------ ---- -- ------<br>------- --- ------ ----- --- ---- ------- -- ---- --- --<br>------- ------,251890,251884.60000002384,251550.197,251561.5,251566.508,251899.98,,23,state
screen,html.Screen,2_1_1_1_24,2022-05-10T16:20:16.740Z,,,,,,,,,,,,,,,,,54,,,,,,,,,,,,,,233.51999999998952,,response,,,,100,,,,,,,Space,keypress(Space),,,,,,,,-- --- ---- --- ------ ----- ------- ---- -- --- ------- --<br>------- ---------- ------ -- ----- -- ----- -- ---- ------<br>--- ----- cut --- ------ -------- ----- --- ------ ----- --<br>----- ----- ---------- --- --- ------ ------ ---- -- ------<br>------- --- ------ ----- --- ---- ------- -- ---- --- --<br>------- ------,252138.30000001192,252133.5,251883.425,251891,251899.98,252149.982,,24,cut
screen,html.Screen,2_1_1_1_25,2022-05-10T16:20:16.994Z,,,,,,,,,,,,,,,,,54,,,,,,,,,,,,,,237.51800000001094,,response,,,,100,,,,,,,Space,keypress(Space),,,,,,,,-- --- ---- --- ------ ----- ------- ---- -- --- ------- --<br>------- ---------- ------ -- ----- -- ----- -- ---- ------<br>--- ----- --- the ------ -------- ----- --- ------ ----- --<br>----- ----- ---------- --- --- ------ ------ ---- -- ------<br>------- --- ------ ----- --- ---- ------- -- ---- --- --<br>------- ------,252392.60000002384,252387.5,252133.34,252139.30000001192,252149.982,252399.709,,25,the
screen,html.Screen,2_1_1_1_26,2022-05-10T16:20:17.248Z,,,,,,,,,,,,,,,,,54,,,,,,,,,,,,,,241.69099997615558,,response,,,,100,,,,,,,Space,keypress(Space),,,,,,,,-- --- ---- --- ------ ----- ------- ---- -- --- ------- --<br>------- ---------- ------ -- ----- -- ----- -- ---- ------<br>--- ----- --- --- bonds' -------- ----- --- ------ ----- --<br>----- ----- ---------- --- --- ------ ------ ---- -- ------<br>------- --- ------ ----- --- ---- ------- -- ---- --- --<br>------- ------,252646.10000002384,252641.39999997616,252383.304,252393.69999998808,252399.709,252683.244,,26,bonds'
screen,html.Screen,2_1_1_1_27,2022-05-10T16:20:17.512Z,,,,,,,,,,,,,,,,,54,,,,,,,,,,,,,,222.1559999761521,,response,,,,100,,,,,,,Space,keypress(Space),,,,,,,,-- --- ---- --- ------ ----- ------- ---- -- --- ------- --<br>------- ---------- ------ -- ----- -- ----- -- ---- ------<br>--- ----- --- --- ------ interest ----- --- ------ ----- --<br>----- ----- ---------- --- --- ------ ------ ---- -- ------<br>------- --- ------ ----- --- ---- ------- -- ---- --- --<br>------- ------,252910.10000002384,252905.39999997616,252666.513,252647.10000002384,252683.244,252916.291,,27,interest
screen,html.Screen,2_1_1_1_28,2022-05-10T16:20:17.761Z,,,,,,,,,,,,,,,,,54,,,,,,,,,,,,,,238.20900000000256,,response,,,,100,,,,,,,Space,keypress(Space),,,,,,,,-- --- ---- --- ------ ----- ------- ---- -- --- ------- --<br>------- ---------- ------ -- ----- -- ----- -- ---- ------<br>--- ----- --- --- ------ -------- rate. --- ------ ----- --<br>----- ----- ---------- --- --- ------ ------ ---- -- ------<br>------- --- ------ ----- --- ---- ------- -- ---- --- --<br>------- ------,253159.30000001192,253154.5,252899.564,252911.19999998808,252916.291,253166.234,,28,rate.
screen,html.Screen,2_1_1_1_29,2022-05-10T16:20:18.003Z,,,,,,,,,,,,,,,,,54,,,,,,,,,,,,,,230.46599998808233,,response,,,,100,,,,,,,Space,keypress(Space),,,,,,,,-- --- ---- --- ------ ----- ------- ---- -- --- ------- --<br>------- ---------- ------ -- ----- -- ----- -- ---- ------<br>--- ----- --- --- ------ -------- ----- The ------ ----- --<br>----- ----- ---------- --- --- ------ ------ ---- -- ------<br>------- --- ------ ----- --- ---- ------- -- ---- --- --<br>------- ------,253401.60000002384,253396.69999998808,253149.979,253160.39999997616,253166.234,253416.462,,29,The
screen,html.Screen,2_1_1_1_30,2022-05-10T16:20:18.219Z,,,,,,,,,,,,,,,,,54,,,,,,,,,,,,,,195.8380000119214,,response,,,,100,,,,,,,Space,keypress(Space),,,,,,,,-- --- ---- --- ------ ----- ------- ---- -- --- ------- --<br>------- ---------- ------ -- ----- -- ----- -- ---- ------<br>--- ----- --- --- ------ -------- ----- --- market ----- --<br>----- ----- ---------- --- --- ------ ------ ---- -- ------<br>------- --- ------ ----- --- ---- ------- -- ---- --- --<br>------- ------,253617,253612.30000001192,253399.702,253402.89999997616,253416.462,253632.856,,30,market
screen,html.Screen,2_1_1_1_31,2022-05-10T16:20:18.494Z,,,,,,,,,,,,,,,,,54,,,,,,,,,,,,,,254.54399997615837,,response,,,,100,,,,,,,Space,keypress(Space),,,,,,,,-- --- ---- --- ------ ----- ------- ---- -- --- ------- --<br>------- ---------- ------ -- ----- -- ----- -- ---- ------<br>--- ----- --- --- ------ -------- ----- --- ------ value --<br>----- ----- ---------- --- --- ------ ------ ---- -- ------<br>------- --- ------ ----- --- ---- ------- -- ---- --- --<br>------- ------,253892.39999997616,253887.39999997616,253616.907,253618.10000002384,253632.856,253899.454,,31,value
screen,html.Screen,2_1_1_1_32,2022-05-10T16:20:18.756Z,,,,,,,,,,,,,,,,,54,,,,,,,,,,,,,,249.84600001192302,,response,,,,100,,,,,,,Space,keypress(Space),,,,,,,,-- --- ---- --- ------ ----- ------- ---- -- --- ------- --<br>------- ---------- ------ -- ----- -- ----- -- ---- ------<br>--- ----- --- --- ------ -------- ----- --- ------ ----- of<br>----- ----- ---------- --- --- ------ ------ ---- -- ------<br>------- --- ------ ----- --- ---- ------- -- ---- --- --<br>------- ------,254154.19999998808,254149.30000001192,253883.207,253893.60000002384,253899.454,254167.281,,32,of
screen,html.Screen,2_1_1_1_33,2022-05-10T16:20:18.998Z,,,,,,,,,,,,,,,,,54,,,,,,,,,,,,,,223.31900002385373,,response,,,,100,,,,,,,Space,keypress(Space),,,,,,,,-- --- ---- --- ------ ----- ------- ---- -- --- ------- --<br>------- ---------- ------ -- ----- -- ----- -- ---- ------<br>--- ----- --- --- ------ -------- ----- --- ------ ----- --<br>these ----- ---------- --- --- ------ ------ ---- -- ------<br>------- --- ------ ----- --- ---- ------- -- ---- --- --<br>------- ------,254396.19999998808,254390.60000002384,254149.407,254155.30000001192,254167.281,254421.11,,33,these
screen,html.Screen,2_1_1_1_34,2022-05-10T16:20:19.249Z,,,,,,,,,,,,,,,,,54,,,,,,,,,,,,,,221.6900000119349,,response,,,,100,,,,,,,Space,keypress(Space),,,,,,,,-- --- ---- --- ------ ----- ------- ---- -- --- ------- --<br>------- ---------- ------ -- ----- -- ----- -- ---- ------<br>--- ----- --- --- ------ -------- ----- --- ------ ----- --<br>----- bonds ---------- --- --- ------ ------ ---- -- ------<br>------- --- ------ ----- --- ---- ------- -- ---- --- --<br>------- ------,254647.60000002384,254642.80000001192,254399.579,254397.30000001192,254421.11,254665.943,,34,bonds
screen,html.Screen,2_1_1_1_35,2022-05-10T16:20:19.518Z,,,,,,,,,,,,,,,,,54,,,,,,,,,,,,,,245.65700002384256,,response,,,,100,,,,,,,Space,keypress(Space),,,,,,,,"-- --- ---- --- ------ ----- ------- ---- -- --- ------- --<br>------- ---------- ------ -- ----- -- ----- -- ---- ------<br>--- ----- --- --- ------ -------- ----- --- ------ ----- --<br>----- ----- plummeted, --- --- ------ ------ ---- -- ------<br>------- --- ------ ----- --- ---- ------- -- ---- --- --<br>------- ------",254916.5,254911.60000002384,254649.427,254648.60000002384,254665.943,254932.63,,35,"plummeted,"
screen,html.Screen,2_1_1_1_36,2022-05-10T16:20:19.760Z,,,,,,,,,,,,,,,,,54,,,,,,,,,,,,,,220.36999999999534,,response,,,,100,,,,,,,Space,keypress(Space),,,,,,,,-- --- ---- --- ------ ----- ------- ---- -- --- ------- --<br>------- ---------- ------ -- ----- -- ----- -- ---- ------<br>--- ----- --- --- ------ -------- ----- --- ------ ----- --<br>----- ----- ---------- and --- ------ ------ ---- -- ------<br>------- --- ------ ----- --- ---- ------- -- ---- --- --<br>------- ------,255157.80000001192,255153,254915.962,254917.60000002384,254932.63,255166.123,,36,and
screen,html.Screen,2_1_1_1_37,2022-05-10T16:20:20.026Z,,,,,,,,,,,,,,,,,54,,,,,,,,,,,,,,253.77699997616583,,response,,,,100,,,,,,,Space,keypress(Space),,,,,,,,-- --- ---- --- ------ ----- ------- ---- -- --- ------- --<br>------- ---------- ------ -- ----- -- ----- -- ---- ------<br>--- ----- --- --- ------ -------- ----- --- ------ ----- --<br>----- ----- ---------- --- the ------ ------ ---- -- ------<br>------- --- ------ ----- --- ---- ------- -- ---- --- --<br>------- ------,255424.60000002384,255419.89999997616,255149.301,255158.89999997616,255166.123,255432.742,,37,the
screen,html.Screen,2_1_1_1_38,2022-05-10T16:20:20.270Z,,,,,,,,,,,,,,,,,54,,,,,,,,,,,,,,229.8580000238435,,response,,,,100,,,,,,,Space,keypress(Space),,,,,,,,-- --- ---- --- ------ ----- ------- ---- -- --- ------- --<br>------- ---------- ------ -- ----- -- ----- -- ---- ------<br>--- ----- --- --- ------ -------- ----- --- ------ ----- --<br>----- ----- ---------- --- --- market ------ ---- -- ------<br>------- --- ------ ----- --- ---- ------- -- ---- --- --<br>------- ------,255668,255662.60000002384,255416.095,255425.80000001192,255432.742,255682.812,,38,market
screen,html.Screen,2_1_1_1_39,2022-05-10T16:20:20.514Z,,,,,,,,,,,,,,,,,54,,,,,,,,,,,,,,224.5879999761528,,response,,,,100,,,,,,,Space,keypress(Space),,,,,,,,-- --- ---- --- ------ ----- ------- ---- -- --- ------- --<br>------- ---------- ------ -- ----- -- ----- -- ---- ------<br>--- ----- --- --- ------ -------- ----- --- ------ ----- --<br>----- ----- ---------- --- --- ------ became ---- -- ------<br>------- --- ------ ----- --- ---- ------- -- ---- --- --<br>------- ------,255912.80000001192,255907.39999997616,255666.152,255669,255682.812,255932.425,,39,became
screen,html.Screen,2_1_1_1_40,2022-05-10T16:20:20.768Z,,,,,,,,,,,,,,,,,54,,,,,,,,,,,,,,228.97499997616978,,response,,,,100,,,,,,,Space,keypress(Space),,,,,,,,-- --- ---- --- ------ ----- ------- ---- -- --- ------- --<br>------- ---------- ------ -- ----- -- ----- -- ---- ------<br>--- ----- --- --- ------ -------- ----- --- ------ ----- --<br>----- ----- ---------- --- --- ------ ------ wary -- ------<br>------- --- ------ ----- --- ---- ------- -- ---- --- --<br>------- ------,256166.80000001192,256161.39999997616,255915.762,255913.89999997616,255932.425,256182.539,,40,wary
screen,html.Screen,2_1_1_1_41,2022-05-10T16:20:21.078Z,,,,,,,,,,,,,,,,,54,,,,,,,,,,,,,,288.3609999761684,,response,,,,100,,,,,,,Space,keypress(Space),,,,,,,,-- --- ---- --- ------ ----- ------- ---- -- --- ------- --<br>------- ---------- ------ -- ----- -- ----- -- ---- ------<br>--- ----- --- --- ------ -------- ----- --- ------ ----- --<br>----- ----- ---------- --- --- ------ ------ ---- of ------<br>------- --- ------ ----- --- ---- ------- -- ---- --- --<br>------- ------,256475.89999997616,256470.89999997616,256165.676,256167.80000001192,256182.539,256482.404,,41,of
screen,html.Screen,2_1_1_1_42,2022-05-10T16:20:21.282Z,,,,,,,,,,,,,,,,,54,,,,,,,,,,,,,,193.89600001191138,,response,,,,100,,,,,,,Space,keypress(Space),,,,,,,,-- --- ---- --- ------ ----- ------- ---- -- --- ------- --<br>------- ---------- ------ -- ----- -- ----- -- ---- ------<br>--- ----- --- --- ------ -------- ----- --- ------ ----- --<br>----- ----- ---------- --- --- ------ ------ ---- -- French<br>------- --- ------ ----- --- ---- ------- -- ---- --- --<br>------- ------,256680.60000002384,256676.30000001192,256466.065,256477,256482.404,256698.981,,42,French
screen,html.Screen,2_1_1_1_43,2022-05-10T16:20:21.547Z,,,,,,,,,,,,,,,,,54,,,,,,,,,,,,,,241.2189999880793,,response,,,,100,,,,,,,Space,keypress(Space),,,,,,,,-- --- ---- --- ------ ----- ------- ---- -- --- ------- --<br>------- ---------- ------ -- ----- -- ----- -- ---- ------<br>--- ----- --- --- ------ -------- ----- --- ------ ----- --<br>----- ----- ---------- --- --- ------ ------ ---- -- ------<br>credit. --- ------ ----- --- ---- ------- -- ---- --- --<br>------- ------,256945.10000002384,256940.19999998808,256682.713,256681.39999997616,256698.981,256982.53,,43,credit.
screen,html.Screen,2_1_1_1_44,2022-05-10T16:20:21.806Z,,,,,,,,,,,,,,,,,54,,,,,,,,,,,,,,216.47000000000116,,response,,,,100,,,,,,,Space,keypress(Space),,,,,,,,-- --- ---- --- ------ ----- ------- ---- -- --- ------- --<br>------- ---------- ------ -- ----- -- ----- -- ---- ------<br>--- ----- --- --- ------ -------- ----- --- ------ ----- --<br>----- ----- ---------- --- --- ------ ------ ---- -- ------<br>------- The ------ ----- --- ---- ------- -- ---- --- --<br>------- ------,257204.10000002384,257199,256966.159,256946.30000001192,256982.53,257215.563,,44,The
screen,html.Screen,2_1_1_1_45,2022-05-10T16:20:22.006Z,,,,,,,,,,,,,,,,,54,,,,,,,,,,,,,,183.73700001192628,,response,,,,100,,,,,,,Space,keypress(Space),,,,,,,,-- --- ---- --- ------ ----- ------- ---- -- --- ------- --<br>------- ---------- ------ -- ----- -- ----- -- ---- ------<br>--- ----- --- --- ------ -------- ----- --- ------ ----- --<br>----- ----- ---------- --- --- ------ ------ ---- -- ------<br>------- --- French ----- --- ---- ------- -- ---- --- --<br>------- ------,257404.30000001192,257399.30000001192,257199.442,257205.10000002384,257215.563,257415.755,,45,French
screen,html.Screen,2_1_1_1_46,2022-05-10T16:20:22.227Z,,,,,,,,,,,,,,,,,54,,,,,,,,,,,,,,204.04500001191627,,response,,,,100,,,,,,,Space,keypress(Space),,,,,,,,-- --- ---- --- ------ ----- ------- ---- -- --- ------- --<br>------- ---------- ------ -- ----- -- ----- -- ---- ------<br>--- ----- --- --- ------ -------- ----- --- ------ ----- --<br>----- ----- ---------- --- --- ------ ------ ---- -- ------<br>------- --- ------ state --- ---- ------- -- ---- --- --<br>------- ------,257625.5,257619.80000001192,257398.901,257405.5,257415.755,257632.205,,46,state
screen,html.Screen,2_1_1_1_47,2022-05-10T16:20:22.476Z,,,,,,,,,,,,,,,,,54,,,,,,,,,,,,,,237.19499997617095,,response,,,,100,,,,,,,Space,keypress(Space),,,,,,,,-- --- ---- --- ------ ----- ------- ---- -- --- ------- --<br>------- ---------- ------ -- ----- -- ----- -- ---- ------<br>--- ----- --- --- ------ -------- ----- --- ------ ----- --<br>----- ----- ---------- --- --- ------ ------ ---- -- ------<br>------- --- ------ ----- was ---- ------- -- ---- --- --<br>------- ------,257874.10000002384,257869.39999997616,257616.116,257626.5,257632.205,257882.159,,47,was
screen,html.Screen,2_1_1_1_48,2022-05-10T16:20:22.703Z,,,,,,,,,,,,,,,,,54,,,,,,,,,,,,,,214.8409999999858,,response,,,,100,,,,,,,Space,keypress(Space),,,,,,,,-- --- ---- --- ------ ----- ------- ---- -- --- ------- --<br>------- ---------- ------ -- ----- -- ----- -- ---- ------<br>--- ----- --- --- ------ -------- ----- --- ------ ----- --<br>----- ----- ---------- --- --- ------ ------ ---- -- ------<br>------- --- ------ ----- --- left ------- -- ---- --- --<br>------- ------,258102.30000001192,258097,257865.961,257875.19999998808,257882.159,258115.516,,48,left
screen,html.Screen,2_1_1_1_49,2022-05-10T16:20:22.967Z,,,,,,,,,,,,,,,,,54,,,,,,,,,,,,,,245.5840000238386,,response,,,,100,,,,,,,Space,keypress(Space),,,,,,,,-- --- ---- --- ------ ----- ------- ---- -- --- ------- --<br>------- ---------- ------ -- ----- -- ----- -- ---- ------<br>--- ----- --- --- ------ -------- ----- --- ------ ----- --<br>----- ----- ---------- --- --- ------ ------ ---- -- ------<br>------- --- ------ ----- --- ---- without -- ---- --- --<br>------- ------,258366.30000001192,258361.10000002384,258099.193,258103.39999997616,258115.516,258382.099,,49,without
screen,html.Screen,2_1_1_1_50,2022-05-10T16:20:23.193Z,,,,,,,,,,,,,,,,,54,,,,,,,,,,,,,,204.90100000001257,,response,,,,100,,,,,,,Space,keypress(Space),,,,,,,,-- --- ---- --- ------ ----- ------- ---- -- --- ------- --<br>------- ---------- ------ -- ----- -- ----- -- ---- ------<br>--- ----- --- --- ------ -------- ----- --- ------ ----- --<br>----- ----- ---------- --- --- ------ ------ ---- -- ------<br>------- --- ------ ----- --- ---- ------- an ---- --- --<br>------- ------,258591.89999997616,258587,258365.751,258367.30000001192,258382.099,258598.734,,50,an
screen,html.Screen,2_1_1_1_51,2022-05-10T16:20:23.447Z,,,,,,,,,,,,,,,,,54,,,,,,,,,,,,,,242.1659999761614,,response,,,,100,,,,,,,Space,keypress(Space),,,,,,,,-- --- ---- --- ------ ----- ------- ---- -- --- ------- --<br>------- ---------- ------ -- ----- -- ----- -- ---- ------<br>--- ----- --- --- ------ -------- ----- --- ------ ----- --<br>----- ----- ---------- --- --- ------ ------ ---- -- ------<br>------- --- ------ ----- --- ---- ------- -- easy --- --<br>------- ------,258845.69999998808,258840.89999997616,258582.23,258593,258598.734,258866.378,,51,easy
screen,html.Screen,2_1_1_1_52,2022-05-10T16:20:23.705Z,,,,,,,,,,,,,,,,,54,,,,,,,,,,,,,,232.52199997616117,,response,,,,100,,,,,,,Space,keypress(Space),,,,,,,,-- --- ---- --- ------ ----- ------- ---- -- --- ------- --<br>------- ---------- ------ -- ----- -- ----- -- ---- ------<br>--- ----- --- --- ------ -------- ----- --- ------ ----- --<br>----- ----- ---------- --- --- ------ ------ ---- -- ------<br>------- --- ------ ----- --- ---- ------- -- ---- way --<br>------- ------,259104,259098.89999997616,258848.964,258846.80000001192,258866.378,259115.354,,52,way
screen,html.Screen,2_1_1_1_53,2022-05-10T16:20:23.979Z,,,,,,,,,,,,,,,,,54,,,,,,,,,,,,,,235.44600001192885,,response,,,,100,,,,,,,Space,keypress(Space),,,,,,,,-- --- ---- --- ------ ----- ------- ---- -- --- ------- --<br>------- ---------- ------ -- ----- -- ----- -- ---- ------<br>--- ----- --- --- ------ -------- ----- --- ------ ----- --<br>----- ----- ---------- --- --- ------ ------ ---- -- ------<br>------- --- ------ ----- --- ---- ------- -- ---- --- of<br>------- ------,259377.80000001192,259350.80000001192,259098.785,259105.10000002384,259115.354,259381.855,,53,of
screen,html.Screen,2_1_1_1_54,2022-05-10T16:20:24.378Z,,,,,,,,,,,,,,,,,54,,,,,,,,,,,,,,390.04499997614766,,response,,,,100,,,,,,,Space,keypress(Space),,,,,,,,-- --- ---- --- ------ ----- ------- ---- -- --- ------- --<br>------- ---------- ------ -- ----- -- ----- -- ---- ------<br>--- ----- --- --- ------ -------- ----- --- ------ ----- --<br>----- ----- ---------- --- --- ------ ------ ---- -- ------<br>------- --- ------ ----- --- ---- ------- -- ---- --- --<br>raising ------,259776.80000001192,259771.89999997616,259365.199,259378.39999997616,259381.855,259781.866,,54,raising
screen,html.Screen,2_1_1_1_55,2022-05-10T16:20:24.795Z,,,,,,,,,,,,,,,,,54,,,,,,,,,,,,,,406.83399998807,,response,,,,100,,,,,,,Space,keypress(Space),,,,,,,,-- --- ---- --- ------ ----- ------- ---- -- --- ------- --<br>------- ---------- ------ -- ----- -- ----- -- ---- ------<br>--- ----- --- --- ------ -------- ----- --- ------ ----- --<br>----- ----- ---------- --- --- ------ ------ ---- -- ------<br>------- --- ------ ----- --- ---- ------- -- ---- --- --<br>------- money.,260193.39999997616,260188.69999998808,259765.068,259777.89999997616,259781.866,260248.358,,55,money.
Item 100,flow.Loop,2_1_1_1,2022-05-10T16:20:24.797Z,,,,,,,,,,,,,,,,,,,,,,,,,,,,,,,15171.04599998807,,completion,,,,,B,,,,,,,,,,,silence,,,,,260195.5,260188.69999998808,244968.156,244971.69999998808,245017.654,260248.358,,,
Question 1,html.Screen,2_1_1_2,2022-05-10T16:20:32.237Z,,,,,,,,,,,,,,,,,,,,,,,,,,,,false,TRUE,,7383.742000023834,,response,,,,100,B,,,,,,FALSE,click #choice-2,,,,silence,,,,,267635.3000000119,267632.10000002384,260198.542,260196.60000002384,260248.358,267663.886,,,
Question 2,html.Screen,2_1_1_3,2022-05-10T16:20:35.130Z,,,,,,,,,,,,,,,,,,,,,,,,,,,,true,FALSE,,2861.8139999880805,,response,,,,100,B,,,,,,FALSE,click #choice-2,,,,silence,,,,,270528.5,270525.6999999881,267630.58,267635.8000000119,267663.886,270563.44,,,
Item 100,flow.Sequence,2_1_1,2022-05-10T16:20:35.130Z,,,,,,,,,,,,,,,,,,,,,,,,,,,,,,,35539.886999988084,,completion,,,,,,,,,,,,,,,,,,,,,270529.1999999881,270525.6999999881,234969.011,234971.69999998808,234985.813,270563.44,,,
End of Practice,html.Page,2_1_2,2022-05-10T16:20:43.305Z,,,,,,,,,,,,,,,,,,,,,,,,,,,,,,,8139.759999988077,,form submission,,,,,,,,,,,,,,,,,,,,,278703.8000000119,278703.1999999881,270513.47,270529.5,270563.44,278713.372,,,
Practice,flow.Sequence,2_1,2022-05-10T16:20:43.306Z,,,,,,,,,,,,,,,,,,,,,,,,,,,,,,,79445.1959999881,,completion,,,,,,,,,,,,,,,,,,,,,278704.5,278703.1999999881,199158.082,199165.39999997616,199258.004,278713.372,,,
Trap_instruction,html.Page,2_2_0,2022-05-10T16:20:48.208Z,,,,,,,,,,,,,,,,,,,,,,,,,,,,,,,4893.128000000026,,form submission,,,,,,,,,,,,,,,,,,,,,283606.89999997616,283606.5,278695.571,278705.1999999881,278713.372,283894.86,,,
trap_trial,html.Screen,2_2_1,2022-05-10T16:20:53.874Z,,,,,,,,,,,,,,,,,,,,,,,,,,,,true,1,,5374.640000000014,,response,,,,,,,,,,,1,click #choice-1,,,,,,,,,289272.39999997616,289269.5,283594.78,283607.1999999881,283894.86,289410.502,,,
end of trap trial,html.Page,2_2_2,2022-05-10T16:20:56.372Z,,,,,,,,,,,,,,,,,,,,,,,,,,,,,,,2359.8979999761796,,form submission,,,,,,,,,,,,,,,,,,,,,291771,291770.39999997616,289260.501,289273.10000002384,289410.502,291776.755,,,
Trap 1,flow.Sequence,2_2,2022-05-10T16:20:56.373Z,,,,,,,,,,,,,,,,,,,,,,,,,,,,,,,13057.027999976184,,completion,,,,,,,,,,,,,,,,,,,,,291771.60000002384,291770.39999997616,278695.571,278704.8000000119,278713.372,291776.755,,,
Standby,html.Page,2_3_0,2022-05-10T16:21:04.362Z,,,,,,,,,,,,,,,,,,,,,,,,,,,,,,,8032.137999999977,,timeout,,,,,,,,,,,,,,,,,,,,,299760.8000000119,299758.855,291760.086,291772.10000002384,291776.755,299808.893,,,
Holding screen,html.Screen,2_3_1_0_0,2022-05-10T16:21:11.395Z,,,,,,,,,,,,,,,,,,,,,,,,,,,,,,,7032.247000000032,,timeout,,,,,,,,,,,,,,,,,,,,,306794,306791.182,299758.855,299762.1999999881,299808.893,306841.14,,,
screen,html.Screen,2_3_1_0_1_0,2022-05-10T16:21:12.684Z,,,,,,,,,,,,,,,,,40,,,,,,,,,,,,,,1237.359999999986,,response,,,,9,B,,,,,,Space,keypress(Space),,,,lyrical,,,,Police -- ------- ---- ---- ---- - -------- ----- --- --<br>----- ----- ------ -- ---- -- --- - ---- -- - ----- -----<br>------ ---- ------ ---- - -------- ------- -- --- --------<br>-------- ----------- ---- ------ ---- ------ ---- --- ---<br>-------- --- -----,308083.10000002384,308078.5,306791.182,306796.10000002384,306841.14,308091.123,,0,Police
screen,html.Screen,2_3_1_0_1_1,2022-05-10T16:21:13.161Z,,,,,,,,,,,,,,,,,40,,,,,,,,,,,,,,463.3769999999786,,response,,,,9,B,,,,,,Space,keypress(Space),,,,lyrical,,,,------ in ------- ---- ---- ---- - -------- ----- --- --<br>----- ----- ------ -- ---- -- --- - ---- -- - ----- -----<br>------ ---- ------ ---- - -------- ------- -- --- --------<br>-------- ----------- ---- ------ ---- ------ ---- --- ---<br>-------- --- -----,308559.8000000119,308554.5,308074.113,308084.60000002384,308091.123,308574.229,,1,in
screen,html.Screen,2_3_1_0_1_2,2022-05-10T16:21:13.643Z,,,,,,,,,,,,,,,,,40,,,,,,,,,,,,,,462.970999988087,,response,,,,9,B,,,,,,Space,keypress(Space),,,,lyrical,,,,------ -- Georgia ---- ---- ---- - -------- ----- --- --<br>----- ----- ------ -- ---- -- --- - ---- -- - ----- -----<br>------ ---- ------ ---- - -------- ------- -- --- --------<br>-------- ----------- ---- ------ ---- ------ ---- --- ---<br>-------- --- -----,309041.60000002384,309037.1999999881,308557.889,308560.5,308574.229,309057.476,,2,Georgia
screen,html.Screen,2_3_1_0_1_3,2022-05-10T16:21:14.074Z,,,,,,,,,,,,,,,,,40,,,,,,,,,,,,,,411.0239999999758,,response,,,,9,B,,,,,,Space,keypress(Space),,,,lyrical,,,,------ -- ------- have ---- ---- - -------- ----- --- --<br>----- ----- ------ -- ---- -- --- - ---- -- - ----- -----<br>------ ---- ------ ---- - -------- ------- -- --- --------<br>-------- ----------- ---- ------ ---- ------ ---- --- ---<br>-------- --- -----,309473.3000000119,309468.5,309040.964,309042.60000002384,309057.476,309492.255,,3,have
screen,html.Screen,2_3_1_0_1_4,2022-05-10T16:21:14.425Z,,,,,,,,,,,,,,,,,40,,,,,,,,,,,,,,326.9449999880744,,response,,,,9,B,,,,,,Space,keypress(Space),,,,lyrical,,,,------ -- ------- ---- shut ---- - -------- ----- --- --<br>----- ----- ------ -- ---- -- --- - ---- -- - ----- -----<br>------ ---- ------ ---- - -------- ------- -- --- --------<br>-------- ----------- ---- ------ ---- ------ ---- --- ---<br>-------- --- -----,309823.89999997616,309819.1999999881,309474.248,309474.6999999881,309492.255,309840.818,,4,shut
screen,html.Screen,2_3_1_0_1_5,2022-05-10T16:21:14.825Z,,,,,,,,,,,,,,,,,40,,,,,,,,,,,,,,378.28200002381345,,response,,,,9,B,,,,,,Space,keypress(Space),,,,lyrical,,,,------ -- ------- ---- ---- down - -------- ----- --- --<br>----- ----- ------ -- ---- -- --- - ---- -- - ----- -----<br>------ ---- ------ ---- - -------- ------- -- --- --------<br>-------- ----------- ---- ------ ---- ------ ---- --- ---<br>-------- --- -----,310223.39999997616,310219.10000002384,309824.217,309825.1999999881,309840.818,310240.614,,5,down
screen,html.Screen,2_3_1_0_1_6,2022-05-10T16:21:15.111Z,,,,,,,,,,,,,,,,,40,,,,,,,,,,,,,,262.98600002384046,,response,,,,9,B,,,,,,Space,keypress(Space),,,,lyrical,,,,------ -- ------- ---- ---- ---- a -------- ----- --- --<br>----- ----- ------ -- ---- -- --- - ---- -- - ----- -----<br>------ ---- ------ ---- - -------- ------- -- --- --------<br>-------- ----------- ---- ------ ---- ------ ---- --- ---<br>-------- --- -----,310509.39999997616,310503.60000002384,310224.377,310224.6999999881,310240.614,310523.891,,6,a
screen,html.Screen,2_3_1_0_1_7,2022-05-10T16:21:15.354Z,,,,,,,,,,,,,,,,,40,,,,,,,,,,,,,,224.10899999999674,,response,,,,9,B,,,,,,Space,keypress(Space),,,,lyrical,,,,------ -- ------- ---- ---- ---- - lemonade ----- --- --<br>----- ----- ------ -- ---- -- --- - ---- -- - ----- -----<br>------ ---- ------ ---- - -------- ------- -- --- --------<br>-------- ----------- ---- ------ ---- ------ ---- --- ---<br>-------- --- -----,310752.8000000119,310748,310507.165,310510.39999997616,310523.891,310757.167,,7,lemonade
screen,html.Screen,2_3_1_0_1_8,2022-05-10T16:21:15.588Z,,,,,,,,,,,,,,,,,40,,,,,,,,,,,,,,224.6330000119051,,response,,,,9,B,,,,,,Space,keypress(Space),,,,lyrical,,,,------ -- ------- ---- ---- ---- - -------- stand --- --<br>----- ----- ------ -- ---- -- --- - ---- -- - ----- -----<br>------ ---- ------ ---- - -------- ------- -- --- --------<br>-------- ----------- ---- ------ ---- ------ ---- --- ---<br>-------- --- -----,310987.1999999881,310981.8000000119,310740.791,310754.10000002384,310757.167,311024.966,,8,stand
screen,html.Screen,2_3_1_0_1_9,2022-05-10T16:21:15.802Z,,,,,,,,,,,,,,,,,40,,,,,,,,,,,,,,172.0339999999851,,response,,,,9,B,,,,,,Space,keypress(Space),,,,lyrical,,,,------ -- ------- ---- ---- ---- - -------- ----- run --<br>----- ----- ------ -- ---- -- --- - ---- -- - ----- -----<br>------ ---- ------ ---- - -------- ------- -- --- --------<br>-------- ----------- ---- ------ ---- ------ ---- --- ---<br>-------- --- -----,311200.89999997616,311197,311007.546,310988.10000002384,311024.966,311207.603,,9,run
screen,html.Screen,2_3_1_0_1_10,2022-05-10T16:21:16.026Z,,,,,,,,,,,,,,,,,40,,,,,,,,,,,,,,211.79699997615535,,response,,,,9,B,,,,,,Space,keypress(Space),,,,lyrical,,,,------ -- ------- ---- ---- ---- - -------- ----- --- by<br>----- ----- ------ -- ---- -- --- - ---- -- - ----- -----<br>------ ---- ------ ---- - -------- ------- -- --- --------<br>-------- ----------- ---- ------ ---- ------ ---- --- ---<br>-------- --- -----,311424.60000002384,311419.39999997616,311190.889,311202,311207.603,311440.422,,10,by
screen,html.Screen,2_3_1_0_1_11,2022-05-10T16:21:16.293Z,,,,,,,,,,,,,,,,,40,,,,,,,,,,,,,,246.67800002382137,,response,,,,9,B,,,,,,Space,keypress(Space),,,,lyrical,,,,------ -- ------- ---- ---- ---- - -------- ----- --- --<br>three ----- ------ -- ---- -- --- - ---- -- - ----- -----<br>------ ---- ------ ---- - -------- ------- -- --- --------<br>-------- ----------- ---- ------ ---- ------ ---- --- ---<br>-------- --- -----,311691.6999999881,311687.10000002384,311424.213,311425.6999999881,311440.422,311707.045,,11,three
screen,html.Screen,2_3_1_0_1_12,2022-05-10T16:21:16.588Z,,,,,,,,,,,,,,,,,40,,,,,,,,,,,,,,273.85499997617444,,response,,,,9,B,,,,,,Space,keypress(Space),,,,lyrical,,,,------ -- ------- ---- ---- ---- - -------- ----- --- --<br>----- girls ------ -- ---- -- --- - ---- -- - ----- -----<br>------ ---- ------ ---- - -------- ------- -- --- --------<br>-------- ----------- ---- ------ ---- ------ ---- --- ---<br>-------- --- -----,311986.6999999881,311980.89999997616,311690.766,311693.39999997616,311707.045,312040.563,,12,girls
screen,html.Screen,2_3_1_0_1_13,2022-05-10T16:21:16.795Z,,,,,,,,,,,,,,,,,40,,,,,,,,,,,,,,147.63699998805532,,response,,,,9,B,,,,,,Space,keypress(Space),,,,lyrical,,,,------ -- ------- ---- ---- ---- - -------- ----- --- --<br>----- ----- trying -- ---- -- --- - ---- -- - ----- -----<br>------ ---- ------ ---- - -------- ------- -- --- --------<br>-------- ----------- ---- ------ ---- ------ ---- --- ---<br>-------- --- -----,312193.39999997616,312188.1999999881,312022.872,311987.89999997616,312040.563,312207.014,,13,trying
screen,html.Screen,2_3_1_0_1_14,2022-05-10T16:21:17.023Z,,,,,,,,,,,,,,,,,40,,,,,,,,,,,,,,209.6859999880544,,response,,,,9,B,,,,,,Space,keypress(Space),,,,lyrical,,,,------ -- ------- ---- ---- ---- - -------- ----- --- --<br>----- ----- ------ to ---- -- --- - ---- -- - ----- -----<br>------ ---- ------ ---- - -------- ------- -- --- --------<br>-------- ----------- ---- ------ ---- ------ ---- --- ---<br>-------- --- -----,312421.60000002384,312416.6999999881,312190.601,312194.8000000119,312207.014,312440.361,,14,to
screen,html.Screen,2_3_1_0_1_15,2022-05-10T16:21:17.234Z,,,,,,,,,,,,,,,,,40,,,,,,,,,,,,,,187.63900000002468,,response,,,,9,B,,,,,,Space,keypress(Space),,,,lyrical,,,,------ -- ------- ---- ---- ---- - -------- ----- --- --<br>----- ----- ------ -- save -- --- - ---- -- - ----- -----<br>------ ---- ------ ---- - -------- ------- -- --- --------<br>-------- ----------- ---- ------ ---- ------ ---- --- ---<br>-------- --- -----,312632.89999997616,312628,312423.624,312422.6999999881,312440.361,312640.235,,15,save
screen,html.Screen,2_3_1_0_1_16,2022-05-10T16:21:17.463Z,,,,,,,,,,,,,,,,,40,,,,,,,,,,,,,,215.76500000001397,,response,,,,9,B,,,,,,Space,keypress(Space),,,,lyrical,,,,------ -- ------- ---- ---- ---- - -------- ----- --- --<br>----- ----- ------ -- ---- up --- - ---- -- - ----- -----<br>------ ---- ------ ---- - -------- ------- -- --- --------<br>-------- ----------- ---- ------ ---- ------ ---- --- ---<br>-------- --- -----,312861.6999999881,312856,312623.61,312634.1999999881,312640.235,312874.349,,16,up
screen,html.Screen,2_3_1_0_1_17,2022-05-10T16:21:17.677Z,,,,,,,,,,,,,,,,,40,,,,,,,,,,,,,,195.55099997617071,,response,,,,9,B,,,,,,Space,keypress(Space),,,,lyrical,,,,------ -- ------- ---- ---- ---- - -------- ----- --- --<br>----- ----- ------ -- ---- -- for - ---- -- - ----- -----<br>------ ---- ------ ---- - -------- ------- -- --- --------<br>-------- ----------- ---- ------ ---- ------ ---- --- ---<br>-------- --- -----,313075.39999997616,313069.89999997616,312856.895,312862.1999999881,312874.349,313090.144,,17,for
screen,html.Screen,2_3_1_0_1_18,2022-05-10T16:21:17.889Z,,,,,,,,,,,,,,,,,40,,,,,,,,,,,,,,192.1560000119498,,response,,,,9,B,,,,,,Space,keypress(Space),,,,lyrical,,,,------ -- ------- ---- ---- ---- - -------- ----- --- --<br>----- ----- ------ -- ---- -- --- a ---- -- - ----- -----<br>------ ---- ------ ---- - -------- ------- -- --- --------<br>-------- ----------- ---- ------ ---- ------ ---- --- ---<br>-------- --- -----,313288.10000002384,313282.3000000119,313073.557,313076.39999997616,313090.144,313306.692,,18,a
screen,html.Screen,2_3_1_0_1_19,2022-05-10T16:21:18.133Z,,,,,,,,,,,,,,,,,40,,,,,,,,,,,,,,220.20799997617723,,response,,,,9,B,,,,,,Space,keypress(Space),,,,lyrical,,,,------ -- ------- ---- ---- ---- - -------- ----- --- --<br>----- ----- ------ -- ---- -- --- - trip -- - ----- -----<br>------ ---- ------ ---- - -------- ------- -- --- --------<br>-------- ----------- ---- ------ ---- ------ ---- --- ---<br>-------- --- -----,313531.8000000119,313526.89999997616,313290.432,313289.10000002384,313306.692,313540.427,,19,trip
screen,html.Screen,2_3_1_0_1_20,2022-05-10T16:21:18.348Z,,,,,,,,,,,,,,,,,40,,,,,,,,,,,,,,202.77299998805393,,response,,,,9,B,,,,,,Space,keypress(Space),,,,lyrical,,,,------ -- ------- ---- ---- ---- - -------- ----- --- --<br>----- ----- ------ -- ---- -- --- - ---- to - ----- -----<br>------ ---- ------ ---- - -------- ------- -- --- --------<br>-------- ----------- ---- ------ ---- ------ ---- --- ---<br>-------- --- -----,313747.1999999881,313743.1999999881,313523.602,313532.8000000119,313540.427,313756.701,,20,to
screen,html.Screen,2_3_1_0_1_21,2022-05-10T16:21:18.570Z,,,,,,,,,,,,,,,,,40,,,,,,,,,,,,,,203.29899999999907,,response,,,,9,B,,,,,,Space,keypress(Space),,,,lyrical,,,,------ -- ------- ---- ---- ---- - -------- ----- --- --<br>----- ----- ------ -- ---- -- --- - ---- -- a ----- -----<br>------ ---- ------ ---- - -------- ------- -- --- --------<br>-------- ----------- ---- ------ ---- ------ ---- --- ---<br>-------- --- -----,313969.1999999881,313960,313740.194,313747.89999997616,313756.701,313990.179,,21,a
screen,html.Screen,2_3_1_0_1_22,2022-05-10T16:21:18.785Z,,,,,,,,,,,,,,,,,40,,,,,,,,,,,,,,188.6210000119172,,response,,,,9,B,,,,,,Space,keypress(Space),,,,lyrical,,,,------ -- ------- ---- ---- ---- - -------- ----- --- --<br>----- ----- ------ -- ---- -- --- - ---- -- - water -----<br>------ ---- ------ ---- - -------- ------- -- --- --------<br>-------- ----------- ---- ------ ---- ------ ---- --- ---<br>-------- --- -----,314183.8000000119,314178.8000000119,313973.851,313972.60000002384,313990.179,314190.156,,22,water
screen,html.Screen,2_3_1_0_1_23,2022-05-10T16:21:19.000Z,,,,,,,,,,,,,,,,,40,,,,,,,,,,,,,,203.34399999998277,,response,,,,9,B,,,,,,Space,keypress(Space),,,,lyrical,,,,"------ -- ------- ---- ---- ---- - -------- ----- --- --<br>----- ----- ------ -- ---- -- --- - ---- -- - ----- park,<br>------ ---- ------ ---- - -------- ------- -- --- --------<br>-------- ----------- ---- ------ ---- ------ ---- --- ---<br>-------- --- -----",314398.8000000119,314393.5,314173.496,314185.10000002384,314190.156,314406.912,,23,"park,"
screen,html.Screen,2_3_1_0_1_24,2022-05-10T16:21:19.206Z,,,,,,,,,,,,,,,,,40,,,,,,,,,,,,,,192.88800001190975,,response,,,,9,B,,,,,,Space,keypress(Space),,,,lyrical,,,,------ -- ------- ---- ---- ---- - -------- ----- --- --<br>----- ----- ------ -- ---- -- --- - ---- -- - ----- -----<br>saying ---- ------ ---- - -------- ------- -- --- --------<br>-------- ----------- ---- ------ ---- ------ ---- --- ---<br>-------- --- -----,314605.1999999881,314599.8000000119,314390.311,314400.1999999881,314406.912,314625.741,,24,saying
screen,html.Screen,2_3_1_0_1_25,2022-05-10T16:21:19.461Z,,,,,,,,,,,,,,,,,40,,,,,,,,,,,,,,229.55900001194095,,response,,,,9,B,,,,,,Space,keypress(Space),,,,lyrical,,,,------ -- ------- ---- ---- ---- - -------- ----- --- --<br>----- ----- ------ -- ---- -- --- - ---- -- - ----- -----<br>------ they ------ ---- - -------- ------- -- --- --------<br>-------- ----------- ---- ------ ---- ------ ---- --- ---<br>-------- --- -----,314859.89999997616,314855.3000000119,314606.998,314606.1999999881,314625.741,314873.327,,25,they
screen,html.Screen,2_3_1_0_1_26,2022-05-10T16:21:19.678Z,,,,,,,,,,,,,,,,,40,,,,,,,,,,,,,,193.4730000119307,,response,,,,9,B,,,,,,Space,keypress(Space),,,,lyrical,,,,------ -- ------- ---- ---- ---- - -------- ----- --- --<br>----- ----- ------ -- ---- -- --- - ---- -- - ----- -----<br>------ ---- didn't ---- - -------- ------- -- --- --------<br>-------- ----------- ---- ------ ---- ------ ---- --- ---<br>-------- --- -----,315077.10000002384,315066.8000000119,314856.714,314860.89999997616,314873.327,315089.786,,26,didn't
screen,html.Screen,2_3_1_0_1_27,2022-05-10T16:21:19.895Z,,,,,,,,,,,,,,,,,40,,,,,,,,,,,,,,199.31400002381997,,response,,,,9,B,,,,,,Space,keypress(Space),,,,lyrical,,,,------ -- ------- ---- ---- ---- - -------- ----- --- --<br>----- ----- ------ -- ---- -- --- - ---- -- - ----- -----<br>------ ---- ------ have - -------- ------- -- --- --------<br>-------- ----------- ---- ------ ---- ------ ---- --- ---<br>-------- --- -----,315293.3000000119,315289.10000002384,315073.256,315078,315089.786,315306.657,,27,have
screen,html.Screen,2_3_1_0_1_28,2022-05-10T16:21:20.120Z,,,,,,,,,,,,,,,,,40,,,,,,,,,,,,,,206.1430000119144,,response,,,,9,B,,,,,,Space,keypress(Space),,,,lyrical,,,,------ -- ------- ---- ---- ---- - -------- ----- --- --<br>----- ----- ------ -- ---- -- --- - ---- -- - ----- -----<br>------ ---- ------ ---- a -------- ------- -- --- --------<br>-------- ----------- ---- ------ ---- ------ ---- --- ---<br>-------- --- -----,315518.3000000119,315512.8000000119,315289.835,315294.39999997616,315306.657,315523.081,,28,a
screen,html.Screen,2_3_1_0_1_29,2022-05-10T16:21:20.354Z,,,,,,,,,,,,,,,,,40,,,,,,,,,,,,,,225.11899998807348,,response,,,,9,B,,,,,,Space,keypress(Space),,,,lyrical,,,,------ -- ------- ---- ---- ---- - -------- ----- --- --<br>----- ----- ------ -- ---- -- --- - ---- -- - ----- -----<br>------ ---- ------ ---- - business ------- -- --- --------<br>-------- ----------- ---- ------ ---- ------ ---- --- ---<br>-------- --- -----,315752.89999997616,315748.1999999881,315506.558,315519.39999997616,315523.081,315773.045,,29,business
screen,html.Screen,2_3_1_0_1_30,2022-05-10T16:21:20.585Z,,,,,,,,,,,,,,,,,40,,,,,,,,,,,,,,206.25500001193723,,response,,,,9,B,,,,,,Space,keypress(Space),,,,lyrical,,,,------ -- ------- ---- ---- ---- - -------- ----- --- --<br>----- ----- ------ -- ---- -- --- - ---- -- - ----- -----<br>------ ---- ------ ---- - -------- license -- --- --------<br>-------- ----------- ---- ------ ---- ------ ---- --- ---<br>-------- --- -----,315984.1999999881,315979.3000000119,315756.609,315755,315773.045,315989.713,,30,license
screen,html.Screen,2_3_1_0_1_31,2022-05-10T16:21:20.851Z,,,,,,,,,,,,,,,,,40,,,,,,,,,,,,,,255.68699997616932,,response,,,,9,B,,,,,,Space,keypress(Space),,,,lyrical,,,,------ -- ------- ---- ---- ---- - -------- ----- --- --<br>----- ----- ------ -- ---- -- --- - ---- -- - ----- -----<br>------ ---- ------ ---- - -------- ------- or --- --------<br>-------- ----------- ---- ------ ---- ------ ---- --- ---<br>-------- --- -----,316250.3000000119,316245.39999997616,315973.476,315985.5,315989.713,316256.313,,31,or
screen,html.Screen,2_3_1_0_1_32,2022-05-10T16:21:21.064Z,,,,,,,,,,,,,,,,,40,,,,,,,,,,,,,,200.5869999761344,,response,,,,9,B,,,,,,Space,keypress(Space),,,,lyrical,,,,------ -- ------- ---- ---- ---- - -------- ----- --- --<br>----- ----- ------ -- ---- -- --- - ---- -- - ----- -----<br>------ ---- ------ ---- - -------- ------- -- the --------<br>-------- ----------- ---- ------ ---- ------ ---- --- ---<br>-------- --- -----,316462.6999999881,316456.89999997616,316239.864,316251.3000000119,316256.313,316472.965,,32,the
screen,html.Screen,2_3_1_0_1_33,2022-05-10T16:21:21.295Z,,,,,,,,,,,,,,,,,40,,,,,,,,,,,,,,216.23499998805346,,response,,,,9,B,,,,,,Space,keypress(Space),,,,lyrical,,,,------ -- ------- ---- ---- ---- - -------- ----- --- --<br>----- ----- ------ -- ---- -- --- - ---- -- - ----- -----<br>------ ---- ------ ---- - -------- ------- -- --- required<br>-------- ----------- ---- ------ ---- ------ ---- --- ---<br>-------- --- -----,316693.89999997616,316689.1999999881,316456.735,316463.6999999881,316472.965,316706.236,,33,required
screen,html.Screen,2_3_1_0_1_34,2022-05-10T16:21:21.560Z,,,,,,,,,,,,,,,,,40,,,,,,,,,,,,,,246.5640000119456,,response,,,,9,B,,,,,,Space,keypress(Space),,,,lyrical,,,,------ -- ------- ---- ---- ---- - -------- ----- --- --<br>----- ----- ------ -- ---- -- --- - ---- -- - ----- -----<br>------ ---- ------ ---- - -------- ------- -- --- --------<br>permits. ----------- ---- ------ ---- ------ ---- --- ---<br>-------- --- -----,316958.39999997616,316952.8000000119,316689.611,316695.1999999881,316706.236,316973.086,,34,permits.
screen,html.Screen,2_3_1_0_1_35,2022-05-10T16:21:21.808Z,,,,,,,,,,,,,,,,,40,,,,,,,,,,,,,,227.3139999761479,,response,,,,9,B,,,,,,Space,keypress(Space),,,,lyrical,,,,------ -- ------- ---- ---- ---- - -------- ----- --- --<br>----- ----- ------ -- ---- -- --- - ---- -- - ----- -----<br>------ ---- ------ ---- - -------- ------- -- --- --------<br>-------- Morningstar ---- ------ ---- ------ ---- --- ---<br>-------- --- -----,317206.39999997616,317200.39999997616,316956.645,316959.39999997616,316973.086,317222.857,,35,Morningstar
screen,html.Screen,2_3_1_0_1_36,2022-05-10T16:21:22.000Z,,,,,,,,,,,,,,,,,40,,,,,,,,,,,,,,170.2430000238237,,response,,,,9,B,,,,,,Space,keypress(Space),,,,lyrical,,,,------ -- ------- ---- ---- ---- - -------- ----- --- --<br>----- ----- ------ -- ---- -- --- - ---- -- - ----- -----<br>------ ---- ------ ---- - -------- ------- -- --- --------<br>-------- ----------- says ------ ---- ------ ---- --- ---<br>-------- --- -----,317398.5,317393.10000002384,317206.338,317207.39999997616,317222.857,317406.403,,36,says
screen,html.Screen,2_3_1_0_1_37,2022-05-10T16:21:22.243Z,,,,,,,,,,,,,,,,,40,,,,,,,,,,,,,,230.89700001192978,,response,,,,9,B,,,,,,Space,keypress(Space),,,,lyrical,,,,------ -- ------- ---- ---- ---- - -------- ----- --- --<br>----- ----- ------ -- ---- -- --- - ---- -- - ----- -----<br>------ ---- ------ ---- - -------- ------- -- --- --------<br>-------- ----------- ---- police ---- ------ ---- --- ---<br>-------- --- -----,317641.89999997616,317637.3000000119,317389.891,317399.60000002384,317406.403,317656.123,,37,police
screen,html.Screen,2_3_1_0_1_38,2022-05-10T16:21:22.470Z,,,,,,,,,,,,,,,,,40,,,,,,,,,,,,,,207.6770000118995,,response,,,,9,B,,,,,,Space,keypress(Space),,,,lyrical,,,,------ -- ------- ---- ---- ---- - -------- ----- --- --<br>----- ----- ------ -- ---- -- --- - ---- -- - ----- -----<br>------ ---- ------ ---- - -------- ------- -- --- --------<br>-------- ----------- ---- ------ also ------ ---- --- ---<br>-------- --- -----,317869.10000002384,317863.8000000119,317639.592,317643,317656.123,317893.186,,38,also
screen,html.Screen,2_3_1_0_1_39,2022-05-10T16:21:22.695Z,,,,,,,,,,,,,,,,,40,,,,,,,,,,,,,,204.61400001193397,,response,,,,9,B,,,,,,Space,keypress(Space),,,,lyrical,,,,------ -- ------- ---- ---- ---- - -------- ----- --- --<br>----- ----- ------ -- ---- -- --- - ---- -- - ----- -----<br>------ ---- ------ ---- - -------- ------- -- --- --------<br>-------- ----------- ---- ------ ---- didn't ---- --- ---<br>-------- --- -----,318102.5,318097.8000000119,317856.455,317870.10000002384,317893.186,318122.697,,39,didn't
screen,html.Screen,2_3_1_0_1_40,2022-05-10T16:21:22.934Z,,,,,,,,,,,,,,,,,40,,,,,,,,,,,,,,214.10300001193536,,response,,,,9,B,,,,,,Space,keypress(Space),,,,lyrical,,,,------ -- ------- ---- ---- ---- - -------- ----- --- --<br>----- ----- ------ -- ---- -- --- - ---- -- - ----- -----<br>------ ---- ------ ---- - -------- ------- -- --- --------<br>-------- ----------- ---- ------ ---- ------ know --- ---<br>-------- --- -----,318341.5,318336.8000000119,318106.099,318104.8000000119,318122.697,318356.024,,40,know
screen,html.Screen,2_3_1_0_1_41,2022-05-10T16:21:23.166Z,,,,,,,,,,,,,,,,,40,,,,,,,,,,,,,,212.87599997618236,,response,,,,9,B,,,,,,Space,keypress(Space),,,,lyrical,,,,------ -- ------- ---- ---- ---- - -------- ----- --- --<br>----- ----- ------ -- ---- -- --- - ---- -- - ----- -----<br>------ ---- ------ ---- - -------- ------- -- --- --------<br>-------- ----------- ---- ------ ---- ------ ---- how ---<br>-------- --- -----,318573.6999999881,318568.89999997616,318339.621,318342.89999997616,318356.024,318589.281,,41,how
screen,html.Screen,2_3_1_0_1_42,2022-05-10T16:21:23.429Z,,,,,,,,,,,,,,,,,40,,,,,,,,,,,,,,241.5190000119037,,response,,,,9,B,,,,,,Space,keypress(Space),,,,lyrical,,,,------ -- ------- ---- ---- ---- - -------- ----- --- --<br>----- ----- ------ -- ---- -- --- - ---- -- - ----- -----<br>------ ---- ------ ---- - -------- ------- -- --- --------<br>-------- ----------- ---- ------ ---- ------ ---- --- the<br>-------- --- -----,318836.60000002384,318830.8000000119,318572.921,318575.10000002384,318589.281,318856.553,,42,the
screen,html.Screen,2_3_1_0_1_43,2022-05-10T16:21:23.655Z,,,,,,,,,,,,,,,,,40,,,,,,,,,,,,,,200.94699999998556,,response,,,,9,B,,,,,,Space,keypress(Space),,,,lyrical,,,,------ -- ------- ---- ---- ---- - -------- ----- --- --<br>----- ----- ------ -- ---- -- --- - ---- -- - ----- -----<br>------ ---- ------ ---- - -------- ------- -- --- --------<br>-------- ----------- ---- ------ ---- ------ ---- --- ---<br>lemonade --- -----,319062.3000000119,319057.5,318839.183,318837.89999997616,318856.553,319072.543,,43,lemonade
screen,html.Screen,2_3_1_0_1_44,2022-05-10T16:21:23.923Z,,,,,,,,,,,,,,,,,40,,,,,,,,,,,,,,252.95699999999488,,response,,,,9,B,,,,,,Space,keypress(Space),,,,lyrical,,,,------ -- ------- ---- ---- ---- - -------- ----- --- --<br>----- ----- ------ -- ---- -- --- - ---- -- - ----- -----<br>------ ---- ------ ---- - -------- ------- -- --- --------<br>-------- ----------- ---- ------ ---- ------ ---- --- ---<br>-------- was -----,319330.60000002384,319325.5,319055.864,319063.39999997616,319072.543,319339.399,,44,was
screen,html.Screen,2_3_1_0_1_45,2022-05-10T16:21:24.246Z,,,,,,,,,,,,,,,,,40,,,,,,,,,,,,,,309.00099997618236,,response,,,,9,B,,,,,,Space,keypress(Space),,,,lyrical,,,,------ -- ------- ---- ---- ---- - -------- ----- --- --<br>----- ----- ------ -- ---- -- --- - ---- -- - ----- -----<br>------ ---- ------ ---- - -------- ------- -- --- --------<br>-------- ----------- ---- ------ ---- ------ ---- --- ---<br>-------- --- made.,319653.39999997616,319648.39999997616,319322.474,319331.6999999881,319339.399,319722.39,,45,made.
Item 9,flow.Loop,2_3_1_0_1,2022-05-10T16:21:24.248Z,,,,,,,,,,,,,,,,,,,,,,,,,,,,,,,12807.259999976144,,completion,,,,,,,,,,,,,,,,,,,,,319655.39999997616,319648.39999997616,306791.182,306795.6999999881,306841.14,319722.39,,,
