sender,sender_type,sender_id,timestamp,meta,,Blues,Classical,Country,Dance,Electronic,Folk,Gospel,Hip-Hop,Jazz,Latin,Musical/Film,New-age,Pop,Prolific_id,Provo_ID,R&B,Rap,Reggae,Religious,Rock,Soul,Swing,Traditional,age,artist_name,correct,correctResponse,distraction,duration,education,ended_on,familiarity,gender,headphone_check_performance,item,list,music_frequency,offensiveness,pleasantness,position_correct,preference,response,response_action,snippet_file,song_name,song_rating,sound,stimulus_1,stimulus_2,stimulus_3,text,time_commit,time_end,time_render,time_run,time_show,time_switch,url,word,word_ID
Prolific ID,html.Form,0,2022-05-03T19:52:37.369Z,"{""labjs_version"":""20.2.2"",""labjs_build"":{""flavor"":""production"",""commit"":""a25486e0c714a0ae2ce03ff94b7bb6896854dcfa""},""location"":""https://run.pavlovia.org/mvasilev/prolific3_music_a/"",""userAgent"":""Mozilla/5.0 (Macintosh; Intel Mac OS X 10_10_5) AppleWebKit/537.36 (KHTML, like Gecko) Chrome/87.0.4280.141 Safari/537.36"",""platform"":""MacIntel"",""language"":""en-GB"",""locale"":""en-US"",""timeZone"":""Europe/London"",""timezoneOffset"":-60,""screen_width"":1360,""screen_height"":768,""scroll_width"":1360,""scroll_height"":608,""window_innerWidth"":1360,""window_innerHeight"":656,""devicePixelRatio"":1}",,,,,,,,,,,,,,,5c0ca233632102000147c7db,,,,,,,,,,,,,,,7281.8490000000365,,form submission,,,,,,,,,,,,,,,,,,,,,19101.67000000365,19101.165000000037,11785.992,11790.144999977201,11819.316,19117.402,{},,
Introduction,html.Screen,1_0,2022-05-03T19:52:41.440Z,,,,,,,,,,,,,,,,,,,,,,,,,,,,,,,4050.7679999608117,,response,,,,,,,,,,,continue,click button,,,,,,,,,23171.90999997547,23168.16999996081,19084.078,19102.000000013504,19117.402,23182.93,,,
Volume calibration,html.Screen,1_1,2022-05-03T19:53:11.444Z,,,,,,,,,,,,,,,,,,,,,,,,,,,,,,,29985.249999978747,,response,,,,,,,,,,,continue,click button,,,,,,,,,53174.969999992754,53168.17999997875,23166.268,23172.08499996923,23182.93,53174.782,,,
Task instructions,html.Screen,1_2,2022-05-03T19:53:16.295Z,,,,,,,,,,,,,,,,,,,,,,,,,,,,,,,4849.402999987484,,response,,,,,,,,,,,continue,click button,,,,,,,,,58026.08499996131,58024.18499998748,53158.12,53175.144999986514,53174.782,58040.294,,,
Sounds,html.Screen,1_3_0_0,2022-05-03T19:53:20.546Z,,,,,,,,,,,,,,,,,,,,,,,,,,,,,,,4248.809999999998,,timeout,,,,,,,,,3,,,,,,,,I,O,S,,62276.3799999957,62272.442,58023.632,58026.3949999935,58040.294,62289.104,,,
Judgement,html.Screen,1_3_0_1,2022-05-03T19:53:21.560Z,,,,,,,,,,,,,,,,,,,,,,,,,,,,true,3,,999.1309999854348,,response,,,,,,,,,3,,3,click #choice-3,,,,,I,O,S,,63290.1299999794,63288.234999985434,62272.442,62276.539999991655,62289.104,63305.486,,,
Trial,flow.Sequence,1_3_0,2022-05-03T19:53:21.560Z,,,,,,,,,,,,,,,,,,,,,,,,,,,,,,,5247.940999985432,,completion,,,,,,,,,3,,,,,,,,I,O,S,,63290.49499996472,63288.234999985434,58023.632,58026.324999984354,58040.294,63305.486,,,
Sounds,html.Screen,1_3_1_0,2022-05-03T19:53:25.809Z,,,,,,,,,,,,,,,,,,,,,,,,,,,,,,,4248.996999999996,,timeout,,,,,,,,,2,,,,,,,,O,S,I,,67539.0550000011,67537.821,63288.824,63290.66999995848,63305.486,67554.483,,,
Judgement,html.Screen,1_3_1_1,2022-05-03T19:53:26.480Z,,,,,,,,,,,,,,,,,,,,,,,,,,,,true,2,,653.7519999691431,,response,,,,,,,,,2,,2,click #choice-2,,,,,O,S,I,,68209.97999998508,68208.23499996914,67537.821,67539.17999996338,67554.483,68220.963,,,
Trial,flow.Sequence,1_3_1,2022-05-03T19:53:26.480Z,,,,,,,,,,,,,,,,,,,,,,,,,,,,,,,4902.748999969139,,completion,,,,,,,,,2,,,,,,,,O,S,I,,68210.19499999238,68208.23499996914,63288.824,63290.615000005346,63305.486,68220.963,,,
Sounds,html.Screen,1_3_2_0,2022-05-03T19:53:30.725Z,,,,,,,,,,,,,,,,,,,,,,,,,,,,,,,4248.809999999998,,timeout,,,,,,,,,2,,,,,,,,I,S,O,,72455.35999996355,72453.111,68204.301,68210.35499998834,68220.963,72469.773,,,
Judgement,html.Screen,1_3_2_1,2022-05-03T19:53:31.576Z,,,,,,,,,,,,,,,,,,,,,,,,,,,,true,2,,834.4969999641617,,response,,,,,,,,,2,,2,click #choice-2,,,,,I,S,O,,73306.03999999585,73304.26999996416,72453.111,72455.48000000417,72469.773,73319.535,,,
Trial,flow.Sequence,1_3_2,2022-05-03T19:53:31.576Z,,,,,,,,,,,,,,,,,,,,,,,,,,,,,,,5083.306999964159,,completion,,,,,,,,,2,,,,,,,,I,S,O,,73306.24999996508,73304.26999996416,68204.301,68210.299999977,68220.963,73319.535,,,
Sounds,html.Screen,1_3_3_0,2022-05-03T19:53:35.823Z,,,,,,,,,,,,,,,,,,,,,,,,,,,,,,,4248.887000000002,,timeout,,,,,,,,,1,,,,,,,,S,I,O,,77552.72500001593,77551.76,73302.873,73306.40999996103,73319.535,77568.422,,,
Judgement,html.Screen,1_3_3_1,2022-05-03T19:53:36.424Z,,,,,,,,,,,,,,,,,,,,,,,,,,,,true,1,,583.7129999820754,,response,,,,,,,,,1,,1,click #choice-1,,,,,S,I,O,,78153.9599999669,78152.13499998208,77551.76,77552.83999996027,77568.422,78168.254,,,
Trial,flow.Sequence,1_3_3,2022-05-03T19:53:36.424Z,,,,,,,,,,,,,,,,,,,,,,,,,,,,,,,4832.599999982078,,completion,,,,,,,,,1,,,,,,,,S,I,O,,78154.1599999764,78152.13499998208,73302.873,73306.34999996983,73319.535,78168.254,,,
Sounds,html.Screen,1_3_4_0,2022-05-03T19:53:40.672Z,,,,,,,,,,,,,,,,,,,,,,,,,,,,,,,4248.809999999998,,timeout,,,,,,,,,3,,,,,,,,O,I,S,,82401.7950000125,82400.402,78151.592,78154.30499997456,78168.254,82417.064,,,
Judgement,html.Screen,1_3_4_1,2022-05-03T19:53:41.192Z,,,,,,,,,,,,,,,,,,,,,,,,,,,,true,3,,503.0460000063904,,response,,,,,,,,,3,,3,click #choice-3,,,,,O,I,S,,82921.83499998646,82920.11000000639,82400.402,82401.91000001505,82417.064,82933.586,,,
Trial,flow.Sequence,1_3_4,2022-05-03T19:53:41.192Z,,,,,,,,,,,,,,,,,,,,,,,,,,,,,,,4751.856000006388,,completion,,,,,,,,,3,,,,,,,,O,I,S,,82922.03499999596,82920.11000000639,78151.592,78154.25999998115,78168.254,82933.586,,,
Sounds,html.Screen,1_3_5_0,2022-05-03T19:53:45.438Z,,,,,,,,,,,,,,,,,,,,,,,,,,,,,,,4248.809999999998,,timeout,,,,,,,,,1,,,,,,,,S,O,I,,87167.73499996634,87165.734,82916.924,82922.17999999411,82933.586,87182.396,,,
Judgement,html.Screen,1_3_5_1,2022-05-03T19:53:45.921Z,,,,,,,,,,,,,,,,,,,,,,,,,,,,true,1,,465.6990000113874,,response,,,,,,,,,1,,1,click #choice-1,,,,,S,O,I,,87650.10999998776,87648.09500001138,87165.734,87167.87499998463,87182.396,87649.159,,,
Trial,flow.Sequence,1_3_5,2022-05-03T19:53:45.921Z,,,,,,,,,,,,,,,,,,,,,,,,,,,,,,,4714.509000011385,,completion,,,,,,,,,1,,,,,,,,S,O,I,,87650.35999997053,87648.09500001138,82916.924,82922.13500000071,82933.586,87649.159,,,
Task,flow.Loop,1_3,2022-05-03T19:53:45.928Z,,,,,,,,,,,,,,,,,,,,,,,,,,,,,,,29607.80100001138,,completion,,,1,,,,,,,,,,,,,,,,,,87657.66500000609,87648.09500001138,58023.632,58026.24999999534,58040.294,87649.159,,,
Trap,html.Screen,1_4,2022-05-03T19:53:45.930Z,,,,,,,,,,,,,,,,,,,,,,,,,,,,,,,NaN,,skipped,,,,,,,,,,,,,,,,,,,,,87658.89999998035,87648.09500001138,,87658.76500000013,,87649.159,,,
Thanks,html.Screen,1_5,2022-05-03T19:53:52.257Z,,,,,,,,,,,,,,,,,,,,,,,,,,,,,,,6335.105999977313,,response,,,,,,,,,,,continue,click button,,,,,,,,,93986.10499995993,93984.26499997731,87632.497,87659.01999996277,87649.159,96246.751,,,
Headphone screening,flow.Sequence,1,2022-05-03T19:53:52.258Z,,,,,,,,,,,,,,,,,,,,,,,,,,,,,,,74866.86299997731,,completion,,,,,,,,,,,,,,,,,,,,,93986.9099999778,93984.26499997731,19084.078,19101.95499996189,19117.402,96246.751,,,
Instructions,html.Page,2_0,2022-05-03T19:54:04.019Z,,,,,,,,,,,,,,,,,,,,,,,,,,,,,,,9499.903999966264,,form submission,,,,,,,,,,,,,,,,,,,,,105747.464999964,105746.65499996627,96230.089,96241.24999996275,96246.751,105760.965,,,
Holding screen,html.Screen,2_1_0_0,2022-05-03T19:54:14.015Z,,,,,,,,,,,,,,,,,,,,,,,,,,,,,,,9997.199999999997,,timeout,,,,,,,,,,,,,,,,,,,,,115743.32999996841,115741.503,105744.303,105747.6799999713,105760.965,115758.165,,,
screen,html.Screen,2_1_0_1_0,2022-05-03T19:54:15.003Z,,,,,,,,,,,,,,,,,53,,,,,,,,,,,,,,970.0500000101019,,response,,,,99,,,,,,,Space,keypress(Space),,,,,,,,When -- ----- -- ------ - ------- --- ----------<br>------------- ------ ------ ---- ---- ------- ----- -- ----<br>-------- ------- -- ---------- --- - --- ----- ----- ----<br>---- --- --- ----- --- ---- ---- ------- ----- ---- -------<br>--- --- -- ----- -- --- ---- -- --- ---- -- ------ ------<br>--- ----- -- ----,116731.61499999696,116728.2150000101,115741.503,115743.5149999801,115758.165,116741.223,,0,When
screen,html.Screen,2_1_0_1_1,2022-05-03T19:54:15.321Z,,,,,,,,,,,,,,,,,53,,,,,,,,,,,,,,307.00199997681193,,response,,,,99,,,,,,,Space,keypress(Space),,,,,,,,---- it ----- -- ------ - ------- --- ----------<br>------------- ------ ------ ---- ---- ------- ----- -- ----<br>-------- ------- -- ---------- --- - --- ----- ----- ----<br>---- --- --- ----- --- ---- ---- ------- ----- ---- -------<br>--- --- -- ----- -- --- ---- -- --- ---- -- ------ ------<br>--- ----- -- ----,117049.31500001112,117048.22499997681,116724.561,116731.75999999512,116741.223,117057.949,,1,it
screen,html.Screen,2_1_0_1_2,2022-05-03T19:54:15.649Z,,,,,,,,,,,,,,,,,53,,,,,,,,,,,,,,318.26099995852564,,response,,,,99,,,,,,,Space,keypress(Space),,,,,,,,---- -- comes -- ------ - ------- --- ----------<br>------------- ------ ------ ---- ---- ------- ----- -- ----<br>-------- ------- -- ---------- --- - --- ----- ----- ----<br>---- --- --- ----- --- ---- ---- ------- ----- ---- -------<br>--- --- -- ----- -- --- ---- -- --- ---- -- ------ ------<br>--- ----- -- ----,117377.41000001552,117376.20999995852,117041.287,117049.43499999354,117057.949,117391.189,,2,comes
screen,html.Screen,2_1_0_1_3,2022-05-03T19:54:16.081Z,,,,,,,,,,,,,,,,,53,,,,,,,,,,,,,,417.02599996818753,,response,,,,99,,,,,,,Space,keypress(Space),,,,,,,,---- -- ----- to ------ - ------- --- ----------<br>------------- ------ ------ ---- ---- ------- ----- -- ----<br>-------- ------- -- ---------- --- - --- ----- ----- ----<br>---- --- --- ----- --- ---- ---- ------- ----- ---- -------<br>--- --- -- ----- -- --- ---- -- --- ---- -- ------ ------<br>--- ----- -- ----,117809.36999997357,117808.21499996819,117374.527,117377.52499995986,117391.189,117824.401,,3,to
screen,html.Screen,2_1_0_1_4,2022-05-03T19:54:16.401Z,,,,,,,,,,,,,,,,,53,,,,,,,,,,,,,,303.8239999931102,,response,,,,99,,,,,,,Space,keypress(Space),,,,,,,,---- -- ----- -- having - ------- --- ----------<br>------------- ------ ------ ---- ---- ------- ----- -- ----<br>-------- ------- -- ---------- --- - --- ----- ----- ----<br>---- --- --- ----- --- ---- ---- ------- ----- ---- -------<br>--- --- -- ----- -- --- ---- -- --- ---- -- ------ ------<br>--- ----- -- ----,118129.34499996481,118128.22499999311,117807.739,117809.4900000142,117824.401,118140.979,,4,having
screen,html.Screen,2_1_0_1_5,2022-05-03T19:54:16.777Z,,,,,,,,,,,,,,,,,53,,,,,,,,,,,,,,363.2309999845893,,response,,,,99,,,,,,,Space,keypress(Space),,,,,,,,---- -- ----- -- ------ a ------- --- ----------<br>------------- ------ ------ ---- ---- ------- ----- -- ----<br>-------- ------- -- ---------- --- - --- ----- ----- ----<br>---- --- --- ----- --- ---- ---- ------- ----- ---- -------<br>--- --- -- ----- -- --- ---- -- --- ---- -- ------ ------<br>--- ----- -- ----,118505.38499996765,118504.2099999846,118124.317,118129.46500000544,118140.979,118507.543,,5,a
screen,html.Screen,2_1_0_1_6,2022-05-03T19:54:17.193Z,,,,,,,,,,,,,,,,,53,,,,,,,,,,,,,,412.66199997306103,,response,,,,99,,,,,,,Space,keypress(Space),,,,,,,,---- -- ----- -- ------ - lasting --- ----------<br>------------- ------ ------ ---- ---- ------- ----- -- ----<br>-------- ------- -- ---------- --- - --- ----- ----- ----<br>---- --- --- ----- --- ---- ---- ------- ----- ---- -------<br>--- --- -- ----- -- --- ---- -- --- ---- -- ------ ------<br>--- ----- -- ----,118921.38499999419,118920.20499997307,118490.881,118505.514999968,118507.543,118924.093,,6,lasting
screen,html.Screen,2_1_0_1_7,2022-05-03T19:54:17.521Z,,,,,,,,,,,,,,,,,53,,,,,,,,,,,,,,324.12199997052085,,response,,,,99,,,,,,,Space,keypress(Space),,,,,,,,---- -- ----- -- ------ - ------- and ----------<br>------------- ------ ------ ---- ---- ------- ----- -- ----<br>-------- ------- -- ---------- --- - --- ----- ----- ----<br>---- --- --- ----- --- ---- ---- ------- ----- ---- -------<br>--- --- -- ----- -- --- ---- -- --- ---- -- ------ ------<br>--- ----- -- ----,119249.24500001362,119248.21499997051,118907.431,118921.5049999766,118924.093,119257.333,,7,and
screen,html.Screen,2_1_0_1_8,2022-05-03T19:54:17.897Z,,,,,,,,,,,,,,,,,53,,,,,,,,,,,,,,366.8819999598054,,response,,,,99,,,,,,,Space,keypress(Space),,,,,,,,---- -- ----- -- ------ - ------- --- fulfilling<br>------------- ------ ------ ---- ---- ------- ----- -- ----<br>-------- ------- -- ---------- --- - --- ----- ----- ----<br>---- --- --- ----- --- ---- ---- ------- ----- ---- -------<br>--- --- -- ----- -- --- ---- -- --- ---- -- ------ ------<br>--- ----- -- ----,119625.35499996739,119624.2149999598,119240.671,119249.36499999603,119257.333,119640.559,,8,fulfilling
screen,html.Screen,2_1_0_1_9,2022-05-03T19:54:18.297Z,,,,,,,,,,,,,,,,,53,,,,,,,,,,,,,,383.6409999852913,,response,,,,99,,,,,,,Space,keypress(Space),,,,,,,,"---- -- ----- -- ------ - ------- --- ----------<br>relationship, ------ ------ ---- ---- ------- ----- -- ----<br>-------- ------- -- ---------- --- - --- ----- ----- ----<br>---- --- --- ----- --- ---- ---- ------- ----- ---- -------<br>--- --- -- ----- -- --- ---- -- --- ---- -- ------ ------<br>--- ----- -- ----",120025.3500000108,120024.19999998529,119623.897,119625.46999996994,119640.559,120040.447,,9,"relationship,"
screen,html.Screen,2_1_0_1_10,2022-05-03T19:54:18.689Z,,,,,,,,,,,,,,,,,53,,,,,,,,,,,,,,375.8079999891779,,response,,,,99,,,,,,,Space,keypress(Space),,,,,,,,---- -- ----- -- ------ - ------- --- ----------<br>------------- common ------ ---- ---- ------- ----- -- ----<br>-------- ------- -- ---------- --- - --- ----- ----- ----<br>---- --- --- ----- --- ---- ---- ------- ----- ---- -------<br>--- --- -- ----- -- --- ---- -- --- ---- -- ------ ------<br>--- ----- -- ----,120417.32499998761,120416.25499998918,120023.785,120025.46500001336,120040.447,120423.673,,10,common
screen,html.Screen,2_1_0_1_11,2022-05-03T19:54:19.089Z,,,,,,,,,,,,,,,,,53,,,,,,,,,,,,,,392.54199999892444,,response,,,,99,,,,,,,Space,keypress(Space),,,,,,,,---- -- ----- -- ------ - ------- --- ----------<br>------------- ------ wisdom ---- ---- ------- ----- -- ----<br>-------- ------- -- ---------- --- - --- ----- ----- ----<br>---- --- --- ----- --- ---- ---- ------- ----- ---- -------<br>--- --- -- ----- -- --- ---- -- --- ---- -- ------ ------<br>--- ----- -- ----,120817.3100000131,120816.21499999892,120407.011,120417.43999999017,120423.673,120823.561,,11,wisdom
screen,html.Screen,2_1_0_1_12,2022-05-03T19:54:19.465Z,,,,,,,,,,,,,,,,,53,,,,,,,,,,,,,,368.65399998820794,,response,,,,99,,,,,,,Space,keypress(Space),,,,,,,,---- -- ----- -- ------ - ------- --- ----------<br>------------- ------ ------ says ---- ------- ----- -- ----<br>-------- ------- -- ---------- --- - --- ----- ----- ----<br>---- --- --- ----- --- ---- ---- ------- ----- ---- -------<br>--- --- -- ----- -- --- ---- -- --- ---- -- ------ ------<br>--- ----- -- ----,121193.31000000238,121192.21499998821,120806.899,120817.42500001565,120823.561,121206.787,,12,says
screen,html.Screen,2_1_0_1_13,2022-05-03T19:54:19.857Z,,,,,,,,,,,,,,,,,53,,,,,,,,,,,,,,377.43299996062706,,response,,,,99,,,,,,,Space,keypress(Space),,,,,,,,---- -- ----- -- ------ - ------- --- ----------<br>------------- ------ ------ ---- that ------- ----- -- ----<br>-------- ------- -- ---------- --- - --- ----- ----- ----<br>---- --- --- ----- --- ---- ---- ------- ----- ---- -------<br>--- --- -- ----- -- --- ---- -- --- ---- -- ------ ------<br>--- ----- -- ----,121585.38999996381,121584.21999996062,121190.125,121193.42500000494,121206.787,121590.013,,13,that
screen,html.Screen,2_1_0_1_14,2022-05-03T19:54:20.217Z,,,,,,,,,,,,,,,,,53,,,,,,,,,,,,,,354.19699998691794,,response,,,,99,,,,,,,Space,keypress(Space),,,,,,,,---- -- ----- -- ------ - ------- --- ----------<br>------------- ------ ------ ---- ---- feeling ----- -- ----<br>-------- ------- -- ---------- --- - --- ----- ----- ----<br>---- --- --- ----- --- ---- ---- ------- ----- ---- -------<br>--- --- -- ----- -- --- ---- -- --- ---- -- ------ ------<br>--- ----- -- ----,121945.2600000077,121944.20999998692,121573.351,121585.50499996636,121590.013,121956.577,,14,feeling
screen,html.Screen,2_1_0_1_15,2022-05-03T19:54:20.585Z,,,,,,,,,,,,,,,,,53,,,,,,,,,,,,,,355.65299998135015,,response,,,,99,,,,,,,Space,keypress(Space),,,,,,,,---- -- ----- -- ------ - ------- --- ----------<br>------------- ------ ------ ---- ---- ------- close -- ----<br>-------- ------- -- ---------- --- - --- ----- ----- ----<br>---- --- --- ----- --- ---- ---- ------- ----- ---- -------<br>--- --- -- ----- -- --- ---- -- --- ---- -- ------ ------<br>--- ----- -- ----,122313.38000000687,122312.22999998135,121939.915,121945.37500001024,121956.577,122323.141,,15,close
screen,html.Screen,2_1_0_1_16,2022-05-03T19:54:20.953Z,,,,,,,,,,,,,,,,,53,,,,,,,,,,,,,,357.0740000003134,,response,,,,99,,,,,,,Space,keypress(Space),,,,,,,,---- -- ----- -- ------ - ------- --- ----------<br>------------- ------ ------ ---- ---- ------- ----- to ----<br>-------- ------- -- ---------- --- - --- ----- ----- ----<br>---- --- --- ----- --- ---- ---- ------- ----- ---- -------<br>--- --- -- ----- -- --- ---- -- --- ---- -- ------ ------<br>--- ----- -- ----,122681.18999997387,122680.21500000032,122306.479,122313.49999998929,122323.141,122689.705,,16,to
screen,html.Screen,2_1_0_1_17,2022-05-03T19:54:21.345Z,,,,,,,,,,,,,,,,,53,,,,,,,,,,,,,,382.5099999928643,,response,,,,99,,,,,,,Space,keypress(Space),,,,,,,,---- -- ----- -- ------ - ------- --- ----------<br>------------- ------ ------ ---- ---- ------- ----- -- your<br>-------- ------- -- ---------- --- - --- ----- ----- ----<br>---- --- --- ----- --- ---- ---- ------- ----- ---- -------<br>--- --- -- ----- -- --- ---- -- --- ---- -- ------ ------<br>--- ----- -- ----,123073.29500000924,123072.21499999287,122673.043,122681.30499997642,122689.705,123089.593,,17,your
screen,html.Screen,2_1_0_1_18,2022-05-03T19:54:21.713Z,,,,,,,,,,,,,,,,,53,,,,,,,,,,,,,,350.6220000096364,,response,,,,99,,,,,,,Space,keypress(Space),,,,,,,,---- -- ----- -- ------ - ------- --- ----------<br>------------- ------ ------ ---- ---- ------- ----- -- ----<br>romantic ------- -- ---------- --- - --- ----- ----- ----<br>---- --- --- ----- --- ---- ---- ------- ----- ---- -------<br>--- --- -- ----- -- --- ---- -- --- ---- -- ------ ------<br>--- ----- -- ----,123441.31500000367,123440.21500000963,123072.931,123073.40499997372,123089.593,123456.157,,18,romantic
screen,html.Screen,2_1_0_1_19,2022-05-03T19:54:22.097Z,,,,,,,,,,,,,,,,,53,,,,,,,,,,,,,,368.05799997143913,,response,,,,99,,,,,,,Space,keypress(Space),,,,,,,,---- -- ----- -- ------ - ------- --- ----------<br>------------- ------ ------ ---- ---- ------- ----- -- ----<br>-------- partner -- ---------- --- - --- ----- ----- ----<br>---- --- --- ----- --- ---- ---- ------- ----- ---- -------<br>--- --- -- ----- -- --- ---- -- --- ---- -- ------ ------<br>--- ----- -- ----,123825.29999996768,123824.21499997145,123439.495,123441.43000000622,123456.157,123839.383,,19,partner
screen,html.Screen,2_1_0_1_20,2022-05-03T19:54:22.490Z,,,,,,,,,,,,,,,,,53,,,,,,,,,,,,,,376.83199996399344,,response,,,,99,,,,,,,Space,keypress(Space),,,,,,,,---- -- ----- -- ------ - ------- --- ----------<br>------------- ------ ------ ---- ---- ------- ----- -- ----<br>-------- ------- is ---------- --- - --- ----- ----- ----<br>---- --- --- ----- --- ---- ---- ------- ----- ---- -------<br>--- --- -- ----- -- --- ---- -- --- ---- -- ------ ------<br>--- ----- -- ----,124218.20499998285,124216.214999964,123822.721,123825.40999999037,123839.383,124222.609,,20,is
screen,html.Screen,2_1_0_1_21,2022-05-03T19:54:22.889Z,,,,,,,,,,,,,,,,,53,,,,,,,,,,,,,,393.63100000302074,,response,,,,99,,,,,,,Space,keypress(Space),,,,,,,,---- -- ----- -- ------ - ------- --- ----------<br>------------- ------ ------ ---- ---- ------- ----- -- ----<br>-------- ------- -- paramount. --- - --- ----- ----- ----<br>---- --- --- ----- --- ---- ---- ------- ----- ---- -------<br>--- --- -- ----- -- --- ---- -- --- ---- -- ------ ------<br>--- ----- -- ----,124617.33999999706,124616.24000000302,124205.947,124219.41499999957,124222.609,124622.497,,21,paramount.
screen,html.Screen,2_1_0_1_22,2022-05-03T19:54:23.273Z,,,,,,,,,,,,,,,,,53,,,,,,,,,,,,,,377.6580000160902,,response,,,,99,,,,,,,Space,keypress(Space),,,,,,,,---- -- ----- -- ------ - ------- --- ----------<br>------------- ------ ------ ---- ---- ------- ----- -- ----<br>-------- ------- -- ---------- But - --- ----- ----- ----<br>---- --- --- ----- --- ---- ---- ------- ----- ---- -------<br>--- --- -- ----- -- --- ---- -- --- ---- -- ------ ------<br>--- ----- -- ----,125001.30000000354,125000.1550000161,124605.835,124617.44999996154,124622.497,125005.723,,22,But
screen,html.Screen,2_1_0_1_23,2022-05-03T19:54:23.594Z,,,,,,,,,,,,,,,,,53,,,,,,,,,,,,,,314.49200001428835,,response,,,,99,,,,,,,Space,keypress(Space),,,,,,,,---- -- ----- -- ------ - ------- --- ----------<br>------------- ------ ------ ---- ---- ------- ----- -- ----<br>-------- ------- -- ---------- --- a --- ----- ----- ----<br>---- --- --- ----- --- ---- ---- ------- ----- ---- -------<br>--- --- -- ----- -- --- ---- -- --- ---- -- ------ ------<br>--- ----- -- ----,125321.45499996841,125320.21500001429,124989.061,125001.41500000609,125005.723,125322.301,,23,a
screen,html.Screen,2_1_0_1_24,2022-05-03T19:54:23.937Z,,,,,,,,,,,,,,,,,53,,,,,,,,,,,,,,341.9089999589778,,response,,,,99,,,,,,,Space,keypress(Space),,,,,,,,---- -- ----- -- ------ - ------- --- ----------<br>------------- ------ ------ ---- ---- ------- ----- -- ----<br>-------- ------- -- ---------- --- - new ----- ----- ----<br>---- --- --- ----- --- ---- ---- ------- ----- ---- -------<br>--- --- -- ----- -- --- ---- -- --- ---- -- ------ ------<br>--- ----- -- ----,125665.24999996182,125664.20999995898,125305.639,125321.56000001123,125322.301,125672.203,,24,new
screen,html.Screen,2_1_0_1_25,2022-05-03T19:54:24.329Z,,,,,,,,,,,,,,,,,53,,,,,,,,,,,,,,383.89699998706055,,response,,,,99,,,,,,,Space,keypress(Space),,,,,,,,---- -- ----- -- ------ - ------- --- ----------<br>------------- ------ ------ ---- ---- ------- ----- -- ----<br>-------- ------- -- ---------- --- - --- study ----- ----<br>---- --- --- ----- --- ---- ---- ------- ----- ---- -------<br>--- --- -- ----- -- --- ---- -- --- ---- -- ------ ------<br>--- ----- -- ----,126056.99000001187,126056.09999998705,125655.541,125665.3599999845,125672.203,126072.091,,25,study
screen,html.Screen,2_1_0_1_26,2022-05-03T19:54:24.682Z,,,,,,,,,,,,,,,,,53,,,,,,,,,,,,,,336.1289999829751,,response,,,,99,,,,,,,Space,keypress(Space),,,,,,,,---- -- ----- -- ------ - ------- --- ----------<br>------------- ------ ------ ---- ---- ------- ----- -- ----<br>-------- ------- -- ---------- --- - --- ----- finds ----<br>---- --- --- ----- --- ---- ---- ------- ----- ---- -------<br>--- --- -- ----- -- --- ---- -- --- ---- -- ------ ------<br>--- ----- -- ----,126409.29999999935,126408.21999998298,126055.429,126057.09999997634,126072.091,126421.993,,26,finds
screen,html.Screen,2_1_0_1_27,2022-05-03T19:54:25.082Z,,,,,,,,,,,,,,,,,53,,,,,,,,,,,,,,386.216999988319,,response,,,,99,,,,,,,Space,keypress(Space),,,,,,,,---- -- ----- -- ------ - ------- --- ----------<br>------------- ------ ------ ---- ---- ------- ----- -- ----<br>-------- ------- -- ---------- --- - --- ----- ----- that<br>---- --- --- ----- --- ---- ---- ------- ----- ---- -------<br>--- --- -- ----- -- --- ---- -- --- ---- -- ------ ------<br>--- ----- -- ----,126809.43999998271,126808.20999998832,126405.331,126409.4150000019,126421.993,126822.031,,27,that
screen,html.Screen,2_1_0_1_28,2022-05-03T19:54:25.450Z,,,,,,,,,,,,,,,,,53,,,,,,,,,,,,,,354.0989999779995,,response,,,,99,,,,,,,Space,keypress(Space),,,,,,,,---- -- ----- -- ------ - ------- --- ----------<br>------------- ------ ------ ---- ---- ------- ----- -- ----<br>-------- ------- -- ---------- --- - --- ----- ----- ----<br>it's --- --- ----- --- ---- ---- ------- ----- ---- -------<br>--- --- -- ----- -- --- ---- -- --- ---- -- ------ ------<br>--- ----- -- ----,127177.32999997679,127176.129999978,126805.369,126809.54499996733,126822.031,127188.595,,28,it's
screen,html.Screen,2_1_0_1_29,2022-05-03T19:54:25.818Z,,,,,,,,,,,,,,,,,53,,,,,,,,,,,,,,355.6249999815773,,response,,,,99,,,,,,,Space,keypress(Space),,,,,,,,---- -- ----- -- ------ - ------- --- ----------<br>------------- ------ ------ ---- ---- ------- ----- -- ----<br>-------- ------- -- ---------- --- - --- ----- ----- ----<br>---- not --- ----- --- ---- ---- ------- ----- ---- -------<br>--- --- -- ----- -- --- ---- -- --- ---- -- ------ ------<br>--- ----- -- ----,127545.37999996683,127544.21999998158,127171.933,127177.43999999948,127188.595,127555.159,,29,not
screen,html.Screen,2_1_0_1_30,2022-05-03T19:54:26.178Z,,,,,,,,,,,,,,,,,53,,,,,,,,,,,,,,349.06099996760895,,response,,,,99,,,,,,,Space,keypress(Space),,,,,,,,---- -- ----- -- ------ - ------- --- ----------<br>------------- ------ ------ ---- ---- ------- ----- -- ----<br>-------- ------- -- ---------- --- - --- ----- ----- ----<br>---- --- how ----- --- ---- ---- ------- ----- ---- -------<br>--- --- -- ----- -- --- ---- -- --- ---- -- ------ ------<br>--- ----- -- ----,127905.31000000192,127904.21999996761,127538.497,127545.49499996938,127555.159,127921.723,,30,how
screen,html.Screen,2_1_0_1_31,2022-05-03T19:54:26.578Z,,,,,,,,,,,,,,,,,53,,,,,,,,,,,,,,382.4969999908935,,response,,,,99,,,,,,,Space,keypress(Space),,,,,,,,---- -- ----- -- ------ - ------- --- ----------<br>------------- ------ ------ ---- ---- ------- ----- -- ----<br>-------- ------- -- ---------- --- - --- ----- ----- ----<br>---- --- --- close --- ---- ---- ------- ----- ---- -------<br>--- --- -- ----- -- --- ---- -- --- ---- -- ------ ------<br>--- ----- -- ----,128305.37999997614,128304.21999999089,127905.061,127905.41499998653,127921.723,128321.611,,31,close
screen,html.Screen,2_1_0_1_32,2022-05-03T19:54:26.994Z,,,,,,,,,,,,,,,,,53,,,,,,,,,,,,,,398.6089999592223,,response,,,,99,,,,,,,Space,keypress(Space),,,,,,,,---- -- ----- -- ------ - ------- --- ----------<br>------------- ------ ------ ---- ---- ------- ----- -- ----<br>-------- ------- -- ---------- --- - --- ----- ----- ----<br>---- --- --- ----- you ---- ---- ------- ----- ---- -------<br>--- --- -- ----- -- --- ---- -- --- ---- -- ------ ------<br>--- ----- -- ----,128721.29499999573,128720.21999995923,128304.949,128305.48499996075,128321.611,128738.161,,32,you
screen,html.Screen,2_1_0_1_33,2022-05-03T19:54:27.450Z,,,,,,,,,,,,,,,,,53,,,,,,,,,,,,,,438.05899996482185,,response,,,,99,,,,,,,Space,keypress(Space),,,,,,,,---- -- ----- -- ------ - ------- --- ----------<br>------------- ------ ------ ---- ---- ------- ----- -- ----<br>-------- ------- -- ---------- --- - --- ----- ----- ----<br>---- --- --- ----- --- feel ---- ------- ----- ---- -------<br>--- --- -- ----- -- --- ---- -- --- ---- -- ------ ------<br>--- ----- -- ----,129177.29999998119,129176.21999996481,128721.499,128721.40499996021,128738.161,129188.035,,33,feel
screen,html.Screen,2_1_0_1_34,2022-05-03T19:54:28.002Z,,,,,,,,,,,,,,,,,53,,,,,,,,,,,,,,540.1849999899569,,response,,,,99,,,,,,,Space,keypress(Space),,,,,,,,---- -- ----- -- ------ - ------- --- ----------<br>------------- ------ ------ ---- ---- ------- ----- -- ----<br>-------- ------- -- ---------- --- - --- ----- ----- ----<br>---- --- --- ----- --- ---- that ------- ----- ---- -------<br>--- --- -- ----- -- --- ---- -- --- ---- -- ------ ------<br>--- ----- -- ----,129729.3049999862,129728.21999998996,129171.373,129177.41000000387,129188.035,129737.881,,34,that
screen,html.Screen,2_1_0_1_35,2022-05-03T19:54:28.450Z,,,,,,,,,,,,,,,,,53,,,,,,,,,,,,,,438.35399996262277,,response,,,,99,,,,,,,Space,keypress(Space),,,,,,,,---- -- ----- -- ------ - ------- --- ----------<br>------------- ------ ------ ---- ---- ------- ----- -- ----<br>-------- ------- -- ---------- --- - --- ----- ----- ----<br>---- --- --- ----- --- ---- ---- matters ----- ---- -------<br>--- --- -- ----- -- --- ---- -- --- ---- -- ------ ------<br>--- ----- -- ----,130177.35000001267,130176.23499996262,129721.219,129729.41999998875,129737.881,130187.755,,35,matters
screen,html.Screen,2_1_0_1_36,2022-05-03T19:54:28.914Z,,,,,,,,,,,,,,,,,53,,,,,,,,,,,,,,452.35999995830934,,response,,,,99,,,,,,,Space,keypress(Space),,,,,,,,"---- -- ----- -- ------ - ------- --- ----------<br>------------- ------ ------ ---- ---- ------- ----- -- ----<br>-------- ------- -- ---------- --- - --- ----- ----- ----<br>---- --- --- ----- --- ---- ---- ------- most, ---- -------<br>--- --- -- ----- -- --- ---- -- --- ---- -- ------ ------<br>--- ----- -- ----",130641.14500000142,130640.11499995831,130171.093,130177.45999997715,130187.755,130654.291,,36,"most,"
screen,html.Screen,2_1_0_1_37,2022-05-03T19:54:29.290Z,,,,,,,,,,,,,,,,,53,,,,,,,,,,,,,,361.92400001056376,,response,,,,99,,,,,,,Space,keypress(Space),,,,,,,,---- -- ----- -- ------ - ------- --- ----------<br>------------- ------ ------ ---- ---- ------- ----- -- ----<br>-------- ------- -- ---------- --- - --- ----- ----- ----<br>---- --- --- ----- --- ---- ---- ------- ----- it's -------<br>--- --- -- ----- -- --- ---- -- --- ---- -- ------ ------<br>--- ----- -- ----,131017.26499997312,131016.21500001056,130637.629,130641.24999998603,130654.291,131020.855,,37,it's
screen,html.Screen,2_1_0_1_38,2022-05-03T19:54:29.706Z,,,,,,,,,,,,,,,,,53,,,,,,,,,,,,,,411.3599999789003,,response,,,,99,,,,,,,Space,keypress(Space),,,,,,,,---- -- ----- -- ------ - ------- --- ----------<br>------------- ------ ------ ---- ---- ------- ----- -- ----<br>-------- ------- -- ---------- --- - --- ----- ----- ----<br>---- --- --- ----- --- ---- ---- ------- ----- ---- whether<br>--- --- -- ----- -- --- ---- -- --- ---- -- ------ ------<br>--- ----- -- ----,131433.37499996414,131432.2149999789,131004.193,131017.37000001594,131020.855,131437.405,,38,whether
screen,html.Screen,2_1_0_1_39,2022-05-03T19:54:30.074Z,,,,,,,,,,,,,,,,,53,,,,,,,,,,,,,,362.8099999956612,,response,,,,99,,,,,,,Space,keypress(Space),,,,,,,,---- -- ----- -- ------ - ------- --- ----------<br>------------- ------ ------ ---- ---- ------- ----- -- ----<br>-------- ------- -- ---------- --- - --- ----- ----- ----<br>---- --- --- ----- --- ---- ---- ------- ----- ---- -------<br>you --- -- ----- -- --- ---- -- --- ---- -- ------ ------<br>--- ----- -- ----,131801.3899999787,131800.21499999566,131420.743,131433.48499998683,131437.405,131803.969,,39,you
screen,html.Screen,2_1_0_1_40,2022-05-03T19:54:30.450Z,,,,,,,,,,,,,,,,,53,,,,,,,,,,,,,,372.24100000507315,,response,,,,99,,,,,,,Space,keypress(Space),,,,,,,,---- -- ----- -- ------ - ------- --- ----------<br>------------- ------ ------ ---- ---- ------- ----- -- ----<br>-------- ------- -- ---------- --- - --- ----- ----- ----<br>---- --- --- ----- --- ---- ---- ------- ----- ---- -------<br>--- are -- ----- -- --- ---- -- --- ---- -- ------ ------<br>--- ----- -- ----,132177.29500000132,132176.21000000509,131787.307,131801.5000000014,131803.969,132187.195,,40,are
screen,html.Screen,2_1_0_1_41,2022-05-03T19:54:30.834Z,,,,,,,,,,,,,,,,,53,,,,,,,,,,,,,,373.0200000049663,,response,,,,99,,,,,,,Space,keypress(Space),,,,,,,,---- -- ----- -- ------ - ------- --- ----------<br>------------- ------ ------ ---- ---- ------- ----- -- ----<br>-------- ------- -- ---------- --- - --- ----- ----- ----<br>---- --- --- ----- --- ---- ---- ------- ----- ---- -------<br>--- --- as ----- -- --- ---- -- --- ---- -- ------ ------<br>--- ----- -- ----,132561.26499996753,132560.21500000497,132170.533,132177.39500000607,132187.195,132570.421,,41,as
screen,html.Screen,2_1_0_1_42,2022-05-03T19:54:31.146Z,,,,,,,,,,,,,,,,,53,,,,,,,,,,,,,,301.78900000135764,,response,,,,99,,,,,,,Space,keypress(Space),,,,,,,,---- -- ----- -- ------ - ------- --- ----------<br>------------- ------ ------ ---- ---- ------- ----- -- ----<br>-------- ------- -- ---------- --- - --- ----- ----- ----<br>---- --- --- ----- --- ---- ---- ------- ----- ---- -------<br>--- --- -- close -- --- ---- -- --- ---- -- ------ ------<br>--- ----- -- ----,132873.2500000042,132872.21000000136,132553.759,132561.37499999022,132570.421,132886.999,,42,close
screen,html.Screen,2_1_0_1_43,2022-05-03T19:54:31.490Z,,,,,,,,,,,,,,,,,53,,,,,,,,,,,,,,329.22599998192163,,response,,,,99,,,,,,,Space,keypress(Space),,,,,,,,---- -- ----- -- ------ - ------- --- ----------<br>------------- ------ ------ ---- ---- ------- ----- -- ----<br>-------- ------- -- ---------- --- - --- ----- ----- ----<br>---- --- --- ----- --- ---- ---- ------- ----- ---- -------<br>--- --- -- ----- as --- ---- -- --- ---- -- ------ ------<br>--- ----- -- ----,133217.34500001185,133216.22499998193,132870.337,132873.35999996867,132886.999,133220.239,,43,as
screen,html.Screen,2_1_0_1_44,2022-05-03T19:54:31.818Z,,,,,,,,,,,,,,,,,53,,,,,,,,,,,,,,323.91099997243145,,response,,,,99,,,,,,,Space,keypress(Space),,,,,,,,---- -- ----- -- ------ - ------- --- ----------<br>------------- ------ ------ ---- ---- ------- ----- -- ----<br>-------- ------- -- ---------- --- - --- ----- ----- ----<br>---- --- --- ----- --- ---- ---- ------- ----- ---- -------<br>--- --- -- ----- -- you ---- -- --- ---- -- ------ ------<br>--- ----- -- ----,133545.13499996392,133544.14999997243,133203.577,133217.44999999646,133220.239,133553.479,,44,you
screen,html.Screen,2_1_0_1_45,2022-05-03T19:54:32.386Z,,,,,,,,,,,,,,,,,53,,,,,,,,,,,,,,558.7459999898565,,response,,,,99,,,,,,,Space,keypress(Space),,,,,,,,---- -- ----- -- ------ - ------- --- ----------<br>------------- ------ ------ ---- ---- ------- ----- -- ----<br>-------- ------- -- ---------- --- - --- ----- ----- ----<br>---- --- --- ----- --- ---- ---- ------- ----- ---- -------<br>--- --- -- ----- -- --- want -- --- ---- -- ------ ------<br>--- ----- -- ----,134113.33500000183,134112.22499998985,133536.817,133545.2449999866,133553.479,134119.987,,45,want
screen,html.Screen,2_1_0_1_46,2022-05-03T19:54:32.666Z,,,,,,,,,,,,,,,,,53,,,,,,,,,,,,,,272.2329999797221,,response,,,,99,,,,,,,Space,keypress(Space),,,,,,,,---- -- ----- -- ------ - ------- --- ----------<br>------------- ------ ------ ---- ---- ------- ----- -- ----<br>-------- ------- -- ---------- --- - --- ----- ----- ----<br>---- --- --- ----- --- ---- ---- ------- ----- ---- -------<br>--- --- -- ----- -- --- ---- to --- ---- -- ------ ------<br>--- ----- -- ----,134393.3299999917,134392.21999997972,134103.325,134113.4449999663,134119.987,134403.241,,46,to
screen,html.Screen,2_1_0_1_47,2022-05-03T19:54:33.594Z,,,,,,,,,,,,,,,,,53,,,,,,,,,,,,,,916.9639999963401,,response,,,,99,,,,,,,Space,keypress(Space),,,,,,,,"---- -- ----- -- ------ - ------- --- ----------<br>------------- ------ ------ ---- ---- ------- ----- -- ----<br>-------- ------- -- ---------- --- - --- ----- ----- ----<br>---- --- --- ----- --- ---- ---- ------- ----- ---- -------<br>--- --- -- ----- -- --- ---- -- be, ---- -- ------ ------<br>--- ----- -- ----",135321.30999997025,135320.20499999635,134386.579,134393.44000001438,134403.241,135336.313,,47,"be,"
screen,html.Screen,2_1_0_1_48,2022-05-03T19:54:33.946Z,,,,,,,,,,,,,,,,,53,,,,,,,,,,,,,,335.90199996958836,,response,,,,99,,,,,,,Space,keypress(Space),,,,,,,,---- -- ----- -- ------ - ------- --- ----------<br>------------- ------ ------ ---- ---- ------- ----- -- ----<br>-------- ------- -- ---------- --- - --- ----- ----- ----<br>---- --- --- ----- --- ---- ---- ------- ----- ---- -------<br>--- --- -- ----- -- --- ---- -- --- even -- ------ ------<br>--- ----- -- ----,135673.24999999255,135672.21499996958,135319.651,135321.41999999294,135336.313,135686.215,,48,even
screen,html.Screen,2_1_0_1_49,2022-05-03T19:54:34.570Z,,,,,,,,,,,,,,,,,53,,,,,,,,,,,,,,609.9950000004319,,response,,,,99,,,,,,,Space,keypress(Space),,,,,,,,---- -- ----- -- ------ - ------- --- ----------<br>------------- ------ ------ ---- ---- ------- ----- -- ----<br>-------- ------- -- ---------- --- - --- ----- ----- ----<br>---- --- --- ----- --- ---- ---- ------- ----- ---- -------<br>--- --- -- ----- -- --- ---- -- --- ---- if ------ ------<br>--- ----- -- ----,136297.11499996483,136296.21000000043,135669.553,135673.36000001524,135686.215,136302.709,,49,if
screen,html.Screen,2_1_0_1_50,2022-05-03T19:54:34.778Z,,,,,,,,,,,,,,,,,53,,,,,,,,,,,,,,201.50099998459336,,response,,,,99,,,,,,,Space,keypress(Space),,,,,,,,---- -- ----- -- ------ - ------- --- ----------<br>------------- ------ ------ ---- ---- ------- ----- -- ----<br>-------- ------- -- ---------- --- - --- ----- ----- ----<br>---- --- --- ----- --- ---- ---- ------- ----- ---- -------<br>--- --- -- ----- -- --- ---- -- --- ---- -- that's ------<br>--- ----- -- ----,136505.24500000756,136504.2099999846,136286.047,136297.22000000766,136302.709,136519.315,,50,that's
screen,html.Screen,2_1_0_1_51,2022-05-03T19:54:35.019Z,,,,,,,,,,,,,,,,,53,,,,,,,,,,,,,,224.88999999541556,,response,,,,99,,,,,,,Space,keypress(Space),,,,,,,,---- -- ----- -- ------ - ------- --- ----------<br>------------- ------ ------ ---- ---- ------- ----- -- ----<br>-------- ------- -- ---------- --- - --- ----- ----- ----<br>---- --- --- ----- --- ---- ---- ------- ----- ---- -------<br>--- --- -- ----- -- --- ---- -- --- ---- -- ------ really<br>--- ----- -- ----,136746.2349999696,136744.20499999542,136502.653,136505.35499997204,136519.315,136752.713,,51,really
screen,html.Screen,2_1_0_1_52,2022-05-03T19:54:35.586Z,,,,,,,,,,,,,,,,,53,,,,,,,,,,,,,,559.501999983564,,response,,,,99,,,,,,,Space,keypress(Space),,,,,,,,---- -- ----- -- ------ - ------- --- ----------<br>------------- ------ ------ ---- ---- ------- ----- -- ----<br>-------- ------- -- ---------- --- - --- ----- ----- ----<br>---- --- --- ----- --- ---- ---- ------- ----- ---- -------<br>--- --- -- ----- -- --- ---- -- --- ---- -- ------ ------<br>not ----- -- ----,137313.5149999871,137312.21499998355,136736.051,136746.34999997215,136752.713,137319.221,,52,not
screen,html.Screen,2_1_0_1_53,2022-05-03T19:54:35.930Z,,,,,,,,,,,,,,,,,53,,,,,,,,,,,,,,336.9990000044054,,response,,,,99,,,,,,,Space,keypress(Space),,,,,,,,---- -- ----- -- ------ - ------- --- ----------<br>------------- ------ ------ ---- ---- ------- ----- -- ----<br>-------- ------- -- ---------- --- - --- ----- ----- ----<br>---- --- --- ----- --- ---- ---- ------- ----- ---- -------<br>--- --- -- ----- -- --- ---- -- --- ---- -- ------ ------<br>--- close -- ----,137657.26000000723,137656.2200000044,137302.559,137313.62500000978,137319.221,137669.123,,53,close
screen,html.Screen,2_1_0_1_54,2022-05-03T19:54:36.338Z,,,,,,,,,,,,,,,,,53,,,,,,,,,,,,,,395.18200000716024,,response,,,,99,,,,,,,Space,keypress(Space),,,,,,,,---- -- ----- -- ------ - ------- --- ----------<br>------------- ------ ------ ---- ---- ------- ----- -- ----<br>-------- ------- -- ---------- --- - --- ----- ----- ----<br>---- --- --- ----- --- ---- ---- ------- ----- ---- -------<br>--- --- -- ----- -- --- ---- -- --- ---- -- ------ ------<br>--- ----- at ----,138065.2799999807,138064.30500000715,137652.461,137657.3699999717,137669.123,138069.011,,54,at
screen,html.Screen,2_1_0_1_55,2022-05-03T19:54:37.010Z,,,,,,,,,,,,,,,,,53,,,,,,,,,,,,,,667.2140000005602,,response,,,,99,,,,,,,Space,keypress(Space),,,,,,,,---- -- ----- -- ------ - ------- --- ----------<br>------------- ------ ------ ---- ---- ------- ----- -- ----<br>-------- ------- -- ---------- --- - --- ----- ----- ----<br>---- --- --- ----- --- ---- ---- ------- ----- ---- -------<br>--- --- -- ----- -- --- ---- -- --- ---- -- ------ ------<br>--- ----- -- all.,138737.34499997227,138736.22500000056,138052.349,138065.3900000034,138069.011,138752.153,,55,all.
Item 99,flow.Loop,2_1_0_1,2022-05-03T19:54:37.010Z,,,,,,,,,,,,,,,,,,,,,,,,,,,,,,,22978.060000000565,,completion,,,,,A,,,,,,,,,,,silence,,,,,138737.5699999975,138736.22500000056,115741.503,115743.4549999889,115758.165,138752.153,,,
Question 1,html.Screen,2_1_0_2,2022-05-03T19:54:42.883Z,,,,,,,,,,,,,,,,,,,,,,,,,,,,true,FALSE,,5856.051999996824,,response,,,,99,A,,,,,,FALSE,click #choice-2,,,,silence,,,,,144609.96500001056,144608.20499999681,138735.491,138737.68999997992,138752.153,144617.177,,,
Question 2,html.Screen,2_1_0_3,2022-05-03T19:54:46.107Z,,,,,,,,,,,,,,,,,,,,,,,,,,,,true,TRUE,,3215.0179999663087,,response,,,,99,A,,,,,,TRUE,click #choice-1,,,,silence,,,,,147833.9500000002,147832.1949999663,144600.515,144610.08499999298,144617.177,147833.09,,,
Item 99,flow.Sequence,2_1_0,2022-05-03T19:54:46.107Z,,,,,,,,,,,,,,,,,,,,,,,,,,,,,,,42071.22999996631,,completion,,,,,,,,,,,,,,,,,,,,,147834.13999999175,147832.1949999663,105744.303,105747.63499997789,105760.965,147833.09,,,
Holding screen,html.Screen,2_1_1_0,2022-05-03T19:54:56.089Z,,,,,,,,,,,,,,,,,,,,,,,,,,,,,,,9997.200000000012,,timeout,,,,,,,,,,,,,,,,,,,,,157815.07000001147,157813.628,147816.428,147834.2699999921,147833.09,157830.29,,,
screen,html.Screen,2_1_1_1_0,2022-05-03T19:54:56.907Z,,,,,,,,,,,,,,,,,54,,,,,,,,,,,,,,801.9350000084669,,response,,,,100,,,,,,,Space,keypress(Space),,,,,,,,At --- ---- --- ------ ----- ------- ---- -- --- ------- --<br>------- ---------- ------ -- ----- -- ----- -- ---- ------<br>--- ----- --- --- ------ -------- ----- --- ------ ----- --<br>----- ----- ---------- --- --- ------ ------ ---- -- ------<br>------- --- ------ ----- --- ---- ------- -- ---- --- --<br>------- ------,158633.62999999663,158632.22500000848,157813.628,157815.21500000963,157830.29,158646.872,,0,At
screen,html.Screen,2_1_1_1_1,2022-05-03T19:54:57.179Z,,,,,,,,,,,,,,,,,54,,,,,,,,,,,,,,257.2679999987304,,response,,,,100,,,,,,,Space,keypress(Space),,,,,,,,-- the ---- --- ------ ----- ------- ---- -- --- ------- --<br>------- ---------- ------ -- ----- -- ----- -- ---- ------<br>--- ----- --- --- ------ -------- ----- --- ------ ----- --<br>----- ----- ---------- --- --- ------ ------ ---- -- ------<br>------- --- ------ ----- --- ---- ------- -- ---- --- --<br>------- ------,158905.03999998327,158904.13999999873,158630.21,158633.74499999918,158646.872,158913.464,,1,the
screen,html.Screen,2_1_1_1_2,2022-05-03T19:54:57.403Z,,,,,,,,,,,,,,,,,54,,,,,,,,,,,,,,214.760999993101,,response,,,,100,,,,,,,Space,keypress(Space),,,,,,,,-- --- time --- ------ ----- ------- ---- -- --- ------- --<br>------- ---------- ------ -- ----- -- ----- -- ---- ------<br>--- ----- --- --- ------ -------- ----- --- ------ ----- --<br>----- ----- ---------- --- --- ------ ------ ---- -- ------<br>------- --- ------ ----- --- ---- ------- -- ---- --- --<br>------- ------,159129.19999996666,159128.2249999931,158896.802,158905.15000000596,158913.464,159130.07,,2,time
screen,html.Screen,2_1_1_1_3,2022-05-03T19:54:57.643Z,,,,,,,,,,,,,,,,,54,,,,,,,,,,,,,,238.14499996585073,,response,,,,100,,,,,,,Space,keypress(Space),,,,,,,,-- --- ---- the ------ ----- ------- ---- -- --- ------- --<br>------- ---------- ------ -- ----- -- ----- -- ---- ------<br>--- ----- --- --- ------ -------- ----- --- ------ ----- --<br>----- ----- ---------- --- --- ------ ------ ---- -- ------<br>------- --- ------ ----- --- ---- ------- -- ---- --- --<br>------- ------,159369.1749999998,159368.21499996586,159113.408,159129.30999998935,159130.07,159380,,3,the
screen,html.Screen,2_1_1_1_4,2022-05-03T19:54:57.843Z,,,,,,,,,,,,,,,,,54,,,,,,,,,,,,,,188.21499997749925,,response,,,,100,,,,,,,Space,keypress(Space),,,,,,,,-- --- ---- --- French ----- ------- ---- -- --- ------- --<br>------- ---------- ------ -- ----- -- ----- -- ---- ------<br>--- ----- --- --- ------ -------- ----- --- ------ ----- --<br>----- ----- ---------- --- --- ------ ------ ---- -- ------<br>------- --- ------ ----- --- ---- ------- -- ---- --- --<br>------- ------,159569.22499998473,159568.2149999775,159363.338,159369.29499998223,159380,159579.944,,4,French
screen,html.Screen,2_1_1_1_5,2022-05-03T19:54:58.051Z,,,,,,,,,,,,,,,,,54,,,,,,,,,,,,,,196.26100000194856,,response,,,,100,,,,,,,Space,keypress(Space),,,,,,,,-- --- ---- --- ------ crown ------- ---- -- --- ------- --<br>------- ---------- ------ -- ----- -- ----- -- ---- ------<br>--- ----- --- --- ------ -------- ----- --- ------ ----- --<br>----- ----- ---------- --- --- ------ ------ ---- -- ------<br>------- --- ------ ----- --- ---- ------- -- ---- --- --<br>------- ------,159777.14500000002,159776.20500000194,159563.282,159569.32999996934,159579.944,159779.888,,5,crown
screen,html.Screen,2_1_1_1_6,2022-05-03T19:54:58.251Z,,,,,,,,,,,,,,,,,54,,,,,,,,,,,,,,196.3219999934372,,response,,,,100,,,,,,,Space,keypress(Space),,,,,,,,-- --- ---- --- ------ ----- secured ---- -- --- ------- --<br>------- ---------- ------ -- ----- -- ----- -- ---- ------<br>--- ----- --- --- ------ -------- ----- --- ------ ----- --<br>----- ----- ---------- --- --- ------ ------ ---- -- ------<br>------- --- ------ ----- --- ---- ------- -- ---- --- --<br>------- ------,159977.13000001386,159976.20999999344,159763.226,159777.2549999645,159779.888,159979.832,,6,secured
screen,html.Screen,2_1_1_1_7,2022-05-03T19:54:58.475Z,,,,,,,,,,,,,,,,,54,,,,,,,,,,,,,,220.38299996074056,,response,,,,100,,,,,,,Space,keypress(Space),,,,,,,,-- --- ---- --- ------ ----- ------- much -- --- ------- --<br>------- ---------- ------ -- ----- -- ----- -- ---- ------<br>--- ----- --- --- ------ -------- ----- --- ------ ----- --<br>----- ----- ---------- --- --- ------ ------ ---- -- ------<br>------- --- ------ ----- --- ---- ------- -- ---- --- --<br>------- ------,160201.26000000164,160200.21499996074,159963.17,159977.23499999847,159979.832,160213.1,,7,much
screen,html.Screen,2_1_1_1_8,2022-05-03T19:54:58.731Z,,,,,,,,,,,,,,,,,54,,,,,,,,,,,,,,243.0699999612698,,response,,,,100,,,,,,,Space,keypress(Space),,,,,,,,-- --- ---- --- ------ ----- ------- ---- of --- ------- --<br>------- ---------- ------ -- ----- -- ----- -- ---- ------<br>--- ----- --- --- ------ -------- ----- --- ------ ----- --<br>----- ----- ---------- --- --- ------ ------ ---- -- ------<br>------- --- ------ ----- --- ---- ------- -- ---- --- --<br>------- ------,160457.18999998644,160456.16999996128,160196.438,160201.36499998625,160213.1,160463.03,,8,of
screen,html.Screen,2_1_1_1_9,2022-05-03T19:54:59.243Z,,,,,,,,,,,,,,,,,54,,,,,,,,,,,,,,505.1899999806483,,response,,,,100,,,,,,,Space,keypress(Space),,,,,,,,-- --- ---- --- ------ ----- ------- ---- -- its ------- --<br>------- ---------- ------ -- ----- -- ----- -- ---- ------<br>--- ----- --- --- ------ -------- ----- --- ------ ----- --<br>----- ----- ---------- --- --- ------ ------ ---- -- ------<br>------- --- ------ ----- --- ---- ------- -- ---- --- --<br>------- ------,160969.29999999702,160968.21999998065,160446.368,160457.30000000913,160463.03,160979.552,,9,its
screen,html.Screen,2_1_1_1_10,2022-05-03T19:54:59.579Z,,,,,,,,,,,,,,,,,54,,,,,,,,,,,,,,324.67299997076043,,response,,,,100,,,,,,,Space,keypress(Space),,,,,,,,-- --- ---- --- ------ ----- ------- ---- -- --- revenue --<br>------- ---------- ------ -- ----- -- ----- -- ---- ------<br>--- ----- --- --- ------ -------- ----- --- ------ ----- --<br>----- ----- ---------- --- --- ------ ------ ---- -- ------<br>------- --- ------ ----- --- ---- ------- -- ---- --- --<br>------- ------,161305.28500000946,161304.22499997076,160962.89,160969.40499998163,160979.552,161312.792,,10,revenue
screen,html.Screen,2_1_1_1_11,2022-05-03T19:54:59.939Z,,,,,,,,,,,,,,,,,54,,,,,,,,,,,,,,351.4279999769351,,response,,,,100,,,,,,,Space,keypress(Space),,,,,,,,-- --- ---- --- ------ ----- ------- ---- -- --- ------- by<br>------- ---------- ------ -- ----- -- ----- -- ---- ------<br>--- ----- --- --- ------ -------- ----- --- ------ ----- --<br>----- ----- ---------- --- --- ------ ------ ---- -- ------<br>------- --- ------ ----- --- ---- ------- -- ---- --- --<br>------- ------,161665.2849999955,161664.21999997692,161296.13,161305.39499997394,161312.792,161679.356,,11,by
screen,html.Screen,2_1_1_1_12,2022-05-03T19:55:00.275Z,,,,,,,,,,,,,,,,,54,,,,,,,,,,,,,,320.8089999758231,,response,,,,100,,,,,,,Space,keypress(Space),,,,,,,,-- --- ---- --- ------ ----- ------- ---- -- --- ------- --<br>issuing ---------- ------ -- ----- -- ----- -- ---- ------<br>--- ----- --- --- ------ -------- ----- --- ------ ----- --<br>----- ----- ---------- --- --- ------ ------ ---- -- ------<br>------- --- ------ ----- --- ---- ------- -- ---- --- --<br>------- ------,162001.17999996291,162000.16499997582,161662.694,161665.39999999804,161679.356,162012.596,,12,issuing
screen,html.Screen,2_1_1_1_13,2022-05-03T19:55:00.603Z,,,,,,,,,,,,,,,,,54,,,,,,,,,,,,,,315.6239999666868,,response,,,,100,,,,,,,Space,keypress(Space),,,,,,,,-- --- ---- --- ------ ----- ------- ---- -- --- ------- --<br>------- government ------ -- ----- -- ----- -- ---- ------<br>--- ----- --- --- ------ -------- ----- --- ------ ----- --<br>----- ----- ---------- --- --- ------ ------ ---- -- ------<br>------- --- ------ ----- --- ---- ------- -- ---- --- --<br>------- ------,162329.28499998525,162328.21999996668,161995.934,162001.2899999856,162012.596,162345.836,,13,government
screen,html.Screen,2_1_1_1_14,2022-05-03T19:55:00.899Z,,,,,,,,,,,,,,,,,54,,,,,,,,,,,,,,278.38399999786634,,response,,,,100,,,,,,,Space,keypress(Space),,,,,,,,-- --- ---- --- ------ ----- ------- ---- -- --- ------- --<br>------- ---------- bonds. -- ----- -- ----- -- ---- ------<br>--- ----- --- --- ------ -------- ----- --- ------ ----- --<br>----- ----- ---------- --- --- ------ ------ ---- -- ------<br>------- --- ------ ----- --- ---- ------- -- ---- --- --<br>------- ------,162625.30000001425,162624.21999999788,162329.174,162329.38999996986,162345.836,162629.09,,14,bonds.
screen,html.Screen,2_1_1_1_15,2022-05-03T19:55:01.195Z,,,,,,,,,,,,,,,,,54,,,,,,,,,,,,,,291.1350000089442,,response,,,,100,,,,,,,Space,keypress(Space),,,,,,,,-- --- ---- --- ------ ----- ------- ---- -- --- ------- --<br>------- ---------- ------ In ----- -- ----- -- ---- ------<br>--- ----- --- --- ------ -------- ----- --- ------ ----- --<br>----- ----- ---------- --- --- ------ ------ ---- -- ------<br>------- --- ------ ----- --- ---- ------- -- ---- --- --<br>------- ------,162921.41999996966,162920.22500000894,162612.428,162625.40999997873,162629.09,162929.006,,15,In
screen,html.Screen,2_1_1_1_16,2022-05-03T19:55:01.499Z,,,,,,,,,,,,,,,,,54,,,,,,,,,,,,,,295.2139999745996,,response,,,,100,,,,,,,Space,keypress(Space),,,,,,,,"-- --- ---- --- ------ ----- ------- ---- -- --- ------- --<br>------- ---------- ------ -- 1727, -- ----- -- ---- ------<br>--- ----- --- --- ------ -------- ----- --- ------ ----- --<br>----- ----- ---------- --- --- ------ ------ ---- -- ------<br>------- --- ------ ----- --- ---- ------- -- ---- --- --<br>------- ------",163225.3250000067,163224.2199999746,162912.344,162921.52999999234,162929.006,163228.922,,16,"1727,"
screen,html.Screen,2_1_1_1_17,2022-05-03T19:55:01.803Z,,,,,,,,,,,,,,,,,54,,,,,,,,,,,,,,299.3129999761295,,response,,,,100,,,,,,,Space,keypress(Space),,,,,,,,-- --- ---- --- ------ ----- ------- ---- -- --- ------- --<br>------- ---------- ------ -- ----- in ----- -- ---- ------<br>--- ----- --- --- ------ -------- ----- --- ------ ----- --<br>----- ----- ---------- --- --- ------ ------ ---- -- ------<br>------- --- ------ ----- --- ---- ------- -- ---- --- --<br>------- ------,163529.40999995917,163528.23499997612,163212.26,163225.44000000926,163228.922,163545.5,,17,in
screen,html.Screen,2_1_1_1_18,2022-05-03T19:55:02.107Z,,,,,,,,,,,,,,,,,54,,,,,,,,,,,,,,286.7199999820441,,response,,,,100,,,,,,,Space,keypress(Space),,,,,,,,-- --- ---- --- ------ ----- ------- ---- -- --- ------- --<br>------- ---------- ------ -- ----- -- order -- ---- ------<br>--- ----- --- --- ------ -------- ----- --- ------ ----- --<br>----- ----- ---------- --- --- ------ ------ ---- -- ------<br>------- --- ------ ----- --- ---- ------- -- ---- --- --<br>------- ------,163833.24999996694,163832.21999998204,163528.838,163529.51999998186,163545.5,163845.416,,18,order
screen,html.Screen,2_1_1_1_19,2022-05-03T19:55:02.427Z,,,,,,,,,,,,,,,,,54,,,,,,,,,,,,,,306.8089999688964,,response,,,,100,,,,,,,Space,keypress(Space),,,,,,,,-- --- ---- --- ------ ----- ------- ---- -- --- ------- --<br>------- ---------- ------ -- ----- -- ----- to ---- ------<br>--- ----- --- --- ------ -------- ----- --- ------ ----- --<br>----- ----- ---------- --- --- ------ ------ ---- -- ------<br>------- --- ------ ----- --- ---- ------- -- ---- --- --<br>------- ------,164153.30999996513,164152.2249999689,163828.754,163834.25999997417,163845.416,164161.994,,19,to
screen,html.Screen,2_1_1_1_20,2022-05-03T19:55:02.715Z,,,,,,,,,,,,,,,,,54,,,,,,,,,,,,,,278.2559999850928,,response,,,,100,,,,,,,Space,keypress(Space),,,,,,,,-- --- ---- --- ------ ----- ------- ---- -- --- ------- --<br>------- ---------- ------ -- ----- -- ----- -- save ------<br>--- ----- --- --- ------ -------- ----- --- ------ ----- --<br>----- ----- ---------- --- --- ------ ------ ---- -- ------<br>------- --- ------ ----- --- ---- ------- -- ---- --- --<br>------- ------,164441.2499999744,164440.2499999851,164145.332,164153.41999998782,164161.994,164445.248,,20,save
screen,html.Screen,2_1_1_1_21,2022-05-03T19:55:03.035Z,,,,,,,,,,,,,,,,,54,,,,,,,,,,,,,,314.9769999763521,,response,,,,100,,,,,,,Space,keypress(Space),,,,,,,,"-- --- ---- --- ------ ----- ------- ---- -- --- ------- --<br>------- ---------- ------ -- ----- -- ----- -- ---- money,<br>--- ----- --- --- ------ -------- ----- --- ------ ----- --<br>----- ----- ---------- --- --- ------ ------ ---- -- ------<br>------- --- ------ ----- --- ---- ------- -- ---- --- --<br>------- ------",164761.36000000406,164760.22499997634,164428.586,164441.35999999708,164445.248,164761.826,,21,"money,"
screen,html.Screen,2_1_1_1_22,2022-05-03T19:55:03.363Z,,,,,,,,,,,,,,,,,54,,,,,,,,,,,,,,326.3939999759896,,response,,,,100,,,,,,,Space,keypress(Space),,,,,,,,-- --- ---- --- ------ ----- ------- ---- -- --- ------- --<br>------- ---------- ------ -- ----- -- ----- -- ---- ------<br>the ----- --- --- ------ -------- ----- --- ------ ----- --<br>----- ----- ---------- --- --- ------ ------ ---- -- ------<br>------- --- ------ ----- --- ---- ------- -- ---- --- --<br>------- ------,165089.3550000037,165088.219999976,164745.164,164761.4750000066,164761.826,165095.066,,22,the
screen,html.Screen,2_1_1_1_23,2022-05-03T19:55:03.659Z,,,,,,,,,,,,,,,,,54,,,,,,,,,,,,,,289.1489999691257,,response,,,,100,,,,,,,Space,keypress(Space),,,,,,,,-- --- ---- --- ------ ----- ------- ---- -- --- ------- --<br>------- ---------- ------ -- ----- -- ----- -- ---- ------<br>--- state --- --- ------ -------- ----- --- ------ ----- --<br>----- ----- ---------- --- --- ------ ------ ---- -- ------<br>------- --- ------ ----- --- ---- ------- -- ---- --- --<br>------- ------,165385.29000000563,165384.21499996912,165078.404,165089.4649999682,165095.066,165394.982,,23,state
screen,html.Screen,2_1_1_1_24,2022-05-03T19:55:04.027Z,,,,,,,,,,,,,,,,,54,,,,,,,,,,,,,,357.252999963559,,response,,,,100,,,,,,,Space,keypress(Space),,,,,,,,-- --- ---- --- ------ ----- ------- ---- -- --- ------- --<br>------- ---------- ------ -- ----- -- ----- -- ---- ------<br>--- ----- cut --- ------ -------- ----- --- ------ ----- --<br>----- ----- ---------- --- --- ------ ------ ---- -- ------<br>------- --- ------ ----- --- ---- ------- -- ---- --- --<br>------- ------,165753.21499997517,165752.23499996355,165378.32,165385.40500000818,165394.982,165761.546,,24,cut
screen,html.Screen,2_1_1_1_25,2022-05-03T19:55:04.259Z,,,,,,,,,,,,,,,,,54,,,,,,,,,,,,,,222.66900000403984,,response,,,,100,,,,,,,Space,keypress(Space),,,,,,,,-- --- ---- --- ------ ----- ------- ---- -- --- ------- --<br>------- ---------- ------ -- ----- -- ----- -- ---- ------<br>--- ----- --- the ------ -------- ----- --- ------ ----- --<br>----- ----- ---------- --- --- ------ ------ ---- -- ------<br>------- --- ------ ----- --- ---- ------- -- ---- --- --<br>------- ------,165985.17999995966,165984.21500000404,165744.884,165753.3199999598,165761.546,165994.814,,25,the
screen,html.Screen,2_1_1_1_26,2022-05-03T19:55:04.555Z,,,,,,,,,,,,,,,,,54,,,,,,,,,,,,,,285.39599999715574,,response,,,,100,,,,,,,Space,keypress(Space),,,,,,,,-- --- ---- --- ------ ----- ------- ---- -- --- ------- --<br>------- ---------- ------ -- ----- -- ----- -- ---- ------<br>--- ----- --- --- bonds' -------- ----- --- ------ ----- --<br>----- ----- ---------- --- --- ------ ------ ---- -- ------<br>------- --- ------ ----- --- ---- ------- -- ---- --- --<br>------- ------,166281.2949999934,166280.20999999717,165978.152,165985.2949999622,165994.814,166294.73,,26,bonds'
screen,html.Screen,2_1_1_1_27,2022-05-03T19:55:04.827Z,,,,,,,,,,,,,,,,,54,,,,,,,,,,,,,,257.5050000101037,,response,,,,100,,,,,,,Space,keypress(Space),,,,,,,,-- --- ---- --- ------ ----- ------- ---- -- --- ------- --<br>------- ---------- ------ -- ----- -- ----- -- ---- ------<br>--- ----- --- --- ------ interest ----- --- ------ ----- --<br>----- ----- ---------- --- --- ------ ------ ---- -- ------<br>------- --- ------ ----- --- ---- ------- -- ---- --- --<br>------- ------,166553.4200000111,166552.2350000101,166278.068,166281.4050000161,166294.73,166561.322,,27,interest
screen,html.Screen,2_1_1_1_28,2022-05-03T19:55:05.091Z,,,,,,,,,,,,,,,,,54,,,,,,,,,,,,,,254.88799996086163,,response,,,,100,,,,,,,Space,keypress(Space),,,,,,,,-- --- ---- --- ------ ----- ------- ---- -- --- ------- --<br>------- ---------- ------ -- ----- -- ----- -- ---- ------<br>--- ----- --- --- ------ -------- rate. --- ------ ----- --<br>----- ----- ---------- --- --- ------ ------ ---- -- ------<br>------- --- ------ ----- --- ---- ------- -- ---- --- --<br>------- ------,166817.2950000153,166816.20999996085,166544.66,166553.52999997558,166561.322,166827.914,,28,rate.
screen,html.Screen,2_1_1_1_29,2022-05-03T19:55:05.447Z,,,,,,,,,,,,,,,,,54,,,,,,,,,,,,,,340.2460000010906,,response,,,,100,,,,,,,Space,keypress(Space),,,,,,,,-- --- ---- --- ------ ----- ------- ---- -- --- ------- --<br>------- ---------- ------ -- ----- -- ----- -- ---- ------<br>--- ----- --- --- ------ -------- ----- The ------ ----- --<br>----- ----- ---------- --- --- ------ ------ ---- -- ------<br>------- --- ------ ----- --- ---- ------- -- ---- --- --<br>------- ------,167173.5200000112,167168.16000000108,166811.252,166817.40499997977,166827.914,167177.816,,29,The
screen,html.Screen,2_1_1_1_30,2022-05-03T19:55:05.763Z,,,,,,,,,,,,,,,,,54,,,,,,,,,,,,,,310.41399995901156,,response,,,,100,,,,,,,Space,keypress(Space),,,,,,,,-- --- ---- --- ------ ----- ------- ---- -- --- ------- --<br>------- ---------- ------ -- ----- -- ----- -- ---- ------<br>--- ----- --- --- ------ -------- ----- --- market ----- --<br>----- ----- ---------- --- --- ------ ------ ---- -- ------<br>------- --- ------ ----- --- ---- ------- -- ---- --- --<br>------- ------,167489.430000016,167488.229999959,167161.154,167173.63500001375,167177.816,167494.394,,30,market
screen,html.Screen,2_1_1_1_31,2022-05-03T19:55:06.067Z,,,,,,,,,,,,,,,,,54,,,,,,,,,,,,,,297.8260000029986,,response,,,,100,,,,,,,Space,keypress(Space),,,,,,,,-- --- ---- --- ------ ----- ------- ---- -- --- ------- --<br>------- ---------- ------ -- ----- -- ----- -- ---- ------<br>--- ----- --- --- ------ -------- ----- --- ------ value --<br>----- ----- ---------- --- --- ------ ------ ---- -- ------<br>------- --- ------ ----- --- ---- ------- -- ---- --- --<br>------- ------,167793.33499999484,167792.220000003,167477.732,167489.53500000061,167494.394,167794.449,,31,value
screen,html.Screen,2_1_1_1_32,2022-05-03T19:55:06.419Z,,,,,,,,,,,,,,,,,54,,,,,,,,,,,,,,349.78600001431187,,response,,,,100,,,,,,,Space,keypress(Space),,,,,,,,-- --- ---- --- ------ ----- ------- ---- -- --- ------- --<br>------- ---------- ------ -- ----- -- ----- -- ---- ------<br>--- ----- --- --- ------ -------- ----- --- ------ ----- of<br>----- ----- ---------- --- --- ------ ------ ---- -- ------<br>------- --- ------ ----- --- ---- ------- -- ---- --- --<br>------- ------,168145.33500000834,168144.2350000143,167777.787,167793.43999997946,167794.449,168161.013,,32,of
screen,html.Screen,2_1_1_1_33,2022-05-03T19:55:06.939Z,,,,,,,,,,,,,,,,,54,,,,,,,,,,,,,,503.20699997691554,,response,,,,100,,,,,,,Space,keypress(Space),,,,,,,,-- --- ---- --- ------ ----- ------- ---- -- --- ------- --<br>------- ---------- ------ -- ----- -- ----- -- ---- ------<br>--- ----- --- --- ------ -------- ----- --- ------ ----- --<br>these ----- ---------- --- --- ------ ------ ---- -- ------<br>------- --- ------ ----- --- ---- ------- -- ---- --- --<br>------- ------,168665.5899999896,168664.21999997692,168144.351,168145.45499999076,168161.013,168677.535,,33,these
screen,html.Screen,2_1_1_1_34,2022-05-03T19:55:07.299Z,,,,,,,,,,,,,,,,,54,,,,,,,,,,,,,,346.64999998747953,,response,,,,100,,,,,,,Space,keypress(Space),,,,,,,,-- --- ---- --- ------ ----- ------- ---- -- --- ------- --<br>------- ---------- ------ -- ----- -- ----- -- ---- ------<br>--- ----- --- --- ------ -------- ----- --- ------ ----- --<br>----- bonds ---------- --- --- ------ ------ ---- -- ------<br>------- --- ------ ----- --- ---- ------- -- ---- --- --<br>------- ------,169025.25000000605,169024.18499998748,168660.873,168665.69499997422,168677.535,169027.437,,34,bonds
screen,html.Screen,2_1_1_1_35,2022-05-03T19:55:07.563Z,,,,,,,,,,,,,,,,,54,,,,,,,,,,,,,,260.7879999674915,,response,,,,100,,,,,,,Space,keypress(Space),,,,,,,,"-- --- ---- --- ------ ----- ------- ---- -- --- ------- --<br>------- ---------- ------ -- ----- -- ----- -- ---- ------<br>--- ----- --- --- ------ -------- ----- --- ------ ----- --<br>----- ----- plummeted, --- --- ------ ------ ---- -- ------<br>------- --- ------ ----- --- ---- ------- -- ---- --- --<br>------- ------",169289.24499999266,169288.2249999675,169010.775,169025.35499999067,169027.437,169294.029,,35,"plummeted,"
screen,html.Screen,2_1_1_1_36,2022-05-03T19:55:07.971Z,,,,,,,,,,,,,,,,,54,,,,,,,,,,,,,,402.19599996329634,,response,,,,100,,,,,,,Space,keypress(Space),,,,,,,,-- --- ---- --- ------ ----- ------- ---- -- --- ------- --<br>------- ---------- ------ -- ----- -- ----- -- ---- ------<br>--- ----- --- --- ------ -------- ----- --- ------ ----- --<br>----- ----- ---------- and --- ------ ------ ---- -- ------<br>------- --- ------ ----- --- ---- ------- -- ---- --- --<br>------- ------,169697.34499999322,169696.2249999633,169277.367,169289.35500001535,169294.029,169710.579,,36,and
screen,html.Screen,2_1_1_1_37,2022-05-03T19:55:08.307Z,,,,,,,,,,,,,,,,,54,,,,,,,,,,,,,,321.6360000138229,,response,,,,100,,,,,,,Space,keypress(Space),,,,,,,,-- --- ---- --- ------ ----- ------- ---- -- --- ------- --<br>------- ---------- ------ -- ----- -- ----- -- ---- ------<br>--- ----- --- --- ------ -------- ----- --- ------ ----- --<br>----- ----- ---------- --- the ------ ------ ---- -- ------<br>------- --- ------ ----- --- ---- ------- -- ---- --- --<br>------- ------,170033.22499996284,170032.21500001382,169693.917,169697.44999997783,169710.579,170043.819,,37,the
screen,html.Screen,2_1_1_1_38,2022-05-03T19:55:08.595Z,,,,,,,,,,,,,,,,,54,,,,,,,,,,,,,,276.4059999740275,,response,,,,100,,,,,,,Space,keypress(Space),,,,,,,,-- --- ---- --- ------ ----- ------- ---- -- --- ------- --<br>------- ---------- ------ -- ----- -- ----- -- ---- ------<br>--- ----- --- --- ------ -------- ----- --- ------ ----- --<br>----- ----- ---------- --- --- market ------ ---- -- ------<br>------- --- ------ ----- --- ---- ------- -- ---- --- --<br>------- ------,170321.2549999589,170320.22499997402,170027.157,170033.3249999676,170043.819,170327.073,,38,market
screen,html.Screen,2_1_1_1_39,2022-05-03T19:55:08.915Z,,,,,,,,,,,,,,,,,54,,,,,,,,,,,,,,313.15199998099706,,response,,,,100,,,,,,,Space,keypress(Space),,,,,,,,-- --- ---- --- ------ ----- ------- ---- -- --- ------- --<br>------- ---------- ------ -- ----- -- ----- -- ---- ------<br>--- ----- --- --- ------ -------- ----- --- ------ ----- --<br>----- ----- ---------- --- --- ------ became ---- -- ------<br>------- --- ------ ----- --- ---- ------- -- ---- --- --<br>------- ------,170641.32499997504,170640.224999981,170310.411,170321.36999996146,170327.073,170643.651,,39,became
screen,html.Screen,2_1_1_1_40,2022-05-03T19:55:09.235Z,,,,,,,,,,,,,,,,,54,,,,,,,,,,,,,,316.58400000591064,,response,,,,100,,,,,,,Space,keypress(Space),,,,,,,,-- --- ---- --- ------ ----- ------- ---- -- --- ------- --<br>------- ---------- ------ -- ----- -- ----- -- ---- ------<br>--- ----- --- --- ------ -------- ----- --- ------ ----- --<br>----- ----- ---------- --- --- ------ ------ wary -- ------<br>------- --- ------ ----- --- ---- ------- -- ---- --- --<br>------- ------,170961.2349999952,170960.23500000592,170626.989,170641.42999995966,170643.651,170976.891,,40,wary
screen,html.Screen,2_1_1_1_41,2022-05-03T19:55:09.555Z,,,,,,,,,,,,,,,,,54,,,,,,,,,,,,,,303.34400001290487,,response,,,,100,,,,,,,Space,keypress(Space),,,,,,,,-- --- ---- --- ------ ----- ------- ---- -- --- ------- --<br>------- ---------- ------ -- ----- -- ----- -- ---- ------<br>--- ----- --- --- ------ -------- ----- --- ------ ----- --<br>----- ----- ---------- --- --- ------ ------ ---- of ------<br>------- --- ------ ----- --- ---- ------- -- ---- --- --<br>------- ------,171281.36999998242,171280.2350000129,170960.229,170961.33999997983,170976.891,171293.469,,41,of
screen,html.Screen,2_1_1_1_42,2022-05-03T19:55:09.875Z,,,,,,,,,,,,,,,,,54,,,,,,,,,,,,,,306.7609999818087,,response,,,,100,,,,,,,Space,keypress(Space),,,,,,,,-- --- ---- --- ------ ----- ------- ---- -- --- ------- --<br>------- ---------- ------ -- ----- -- ----- -- ---- ------<br>--- ----- --- --- ------ -------- ----- --- ------ ----- --<br>----- ----- ---------- --- --- ------ ------ ---- -- French<br>------- --- ------ ----- --- ---- ------- -- ---- --- --<br>------- ------,171601.35999997146,171600.22999998182,171276.807,171281.4800000051,171293.469,171610.047,,42,French
screen,html.Screen,2_1_1_1_43,2022-05-03T19:55:10.179Z,,,,,,,,,,,,,,,,,54,,,,,,,,,,,,,,294.1729999676172,,response,,,,100,,,,,,,Space,keypress(Space),,,,,,,,-- --- ---- --- ------ ----- ------- ---- -- --- ------- --<br>------- ---------- ------ -- ----- -- ----- -- ---- ------<br>--- ----- --- --- ------ -------- ----- --- ------ ----- --<br>----- ----- ---------- --- --- ------ ------ ---- -- ------<br>credit. --- ------ ----- --- ---- ------- -- ---- --- --<br>------- ------,171905.28499998618,171904.2199999676,171593.385,171601.46999999415,171610.047,171909.963,,43,credit.
screen,html.Screen,2_1_1_1_44,2022-05-03T19:55:10.443Z,,,,,,,,,,,,,,,,,54,,,,,,,,,,,,,,258.26199997216463,,response,,,,100,,,,,,,Space,keypress(Space),,,,,,,,-- --- ---- --- ------ ----- ------- ---- -- --- ------- --<br>------- ---------- ------ -- ----- -- ----- -- ---- ------<br>--- ----- --- --- ------ -------- ----- --- ------ ----- --<br>----- ----- ---------- --- --- ------ ------ ---- -- ------<br>------- The ------ ----- --- ---- ------- -- ---- --- --<br>------- ------,172169.3699999596,172168.22499997215,171893.301,171905.3899999708,171909.963,172176.555,,44,The
screen,html.Screen,2_1_1_1_45,2022-05-03T19:55:10.771Z,,,,,,,,,,,,,,,,,54,,,,,,,,,,,,,,319.65999999194173,,response,,,,100,,,,,,,Space,keypress(Space),,,,,,,,-- --- ---- --- ------ ----- ------- ---- -- --- ------- --<br>------- ---------- ------ -- ----- -- ----- -- ---- ------<br>--- ----- --- --- ------ -------- ----- --- ------ ----- --<br>----- ----- ---------- --- --- ------ ------ ---- -- ------<br>------- --- French ----- --- ---- ------- -- ---- --- --<br>------- ------,172497.31499998597,172496.21499999193,172159.893,172169.4799999823,172176.555,172509.795,,45,French
screen,html.Screen,2_1_1_1_46,2022-05-03T19:55:11.027Z,,,,,,,,,,,,,,,,,54,,,,,,,,,,,,,,242.43000000380562,,response,,,,100,,,,,,,Space,keypress(Space),,,,,,,,-- --- ---- --- ------ ----- ------- ---- -- --- ------- --<br>------- ---------- ------ -- ----- -- ----- -- ---- ------<br>--- ----- --- --- ------ -------- ----- --- ------ ----- --<br>----- ----- ---------- --- --- ------ ------ ---- -- ------<br>------- --- ------ state --- ---- ------- -- ---- --- --<br>------- ------,172753.30499996198,172752.22500000382,172493.133,172497.42500000866,172509.795,172759.725,,46,state
screen,html.Screen,2_1_1_1_47,2022-05-03T19:55:11.307Z,,,,,,,,,,,,,,,,,54,,,,,,,,,,,,,,272.490000013815,,response,,,,100,,,,,,,Space,keypress(Space),,,,,,,,-- --- ---- --- ------ ----- ------- ---- -- --- ------- --<br>------- ---------- ------ -- ----- -- ----- -- ---- ------<br>--- ----- --- --- ------ -------- ----- --- ------ ----- --<br>----- ----- ---------- --- --- ------ ------ ---- -- ------<br>------- --- ------ ----- was ---- ------- -- ---- --- --<br>------- ------,173033.17999996943,173032.21500001382,172743.063,172753.41499998467,172759.725,173042.979,,47,was
screen,html.Screen,2_1_1_1_48,2022-05-03T19:55:11.619Z,,,,,,,,,,,,,,,,,54,,,,,,,,,,,,,,301.23599999008,,response,,,,100,,,,,,,Space,keypress(Space),,,,,,,,-- --- ---- --- ------ ----- ------- ---- -- --- ------- --<br>------- ---------- ------ -- ----- -- ----- -- ---- ------<br>--- ----- --- --- ------ -------- ----- --- ------ ----- --<br>----- ----- ---------- --- --- ------ ------ ---- -- ------<br>------- --- ------ ----- --- left ------- -- ---- --- --<br>------- ------,173345.24499997497,173344.21499999007,173026.317,173033.28999999212,173042.979,173359.557,,48,left
screen,html.Screen,2_1_1_1_49,2022-05-03T19:55:11.819Z,,,,,,,,,,,,,,,,,54,,,,,,,,,,,,,,184.65299996364047,,response,,,,100,,,,,,,Space,keypress(Space),,,,,,,,-- --- ---- --- ------ ----- ------- ---- -- --- ------- --<br>------- ---------- ------ -- ----- -- ----- -- ---- ------<br>--- ----- --- --- ------ -------- ----- --- ------ ----- --<br>----- ----- ---------- --- --- ------ ------ ---- -- ------<br>------- --- ------ ----- --- ---- without -- ---- --- --<br>------- ------,173545.2599999844,173544.20999996364,173342.895,173345.35499999765,173359.557,173559.501,,49,without
screen,html.Screen,2_1_1_1_50,2022-05-03T19:55:12.123Z,,,,,,,,,,,,,,,,,54,,,,,,,,,,,,,,288.6739999919082,,response,,,,100,,,,,,,Space,keypress(Space),,,,,,,,-- --- ---- --- ------ ----- ------- ---- -- --- ------- --<br>------- ---------- ------ -- ----- -- ----- -- ---- ------<br>--- ----- --- --- ------ -------- ----- --- ------ ----- --<br>----- ----- ---------- --- --- ------ ------ ---- -- ------<br>------- --- ------ ----- --- ---- ------- an ---- --- --<br>------- ------,173849.16499996325,173848.1749999919,173542.839,173545.3700000071,173559.501,173859.417,,50,an
screen,html.Screen,2_1_1_1_51,2022-05-03T19:55:12.459Z,,,,,,,,,,,,,,,,,54,,,,,,,,,,,,,,324.79800001569674,,response,,,,100,,,,,,,Space,keypress(Space),,,,,,,,-- --- ---- --- ------ ----- ------- ---- -- --- ------- --<br>------- ---------- ------ -- ----- -- ----- -- ---- ------<br>--- ----- --- --- ------ -------- ----- --- ------ ----- --<br>----- ----- ---------- --- --- ------ ------ ---- -- ------<br>------- --- ------ ----- --- ---- ------- -- easy --- --<br>------- ------,174185.28999999398,174184.21500001568,173842.755,173849.27499998594,173859.417,174192.657,,51,easy
screen,html.Screen,2_1_1_1_52,2022-05-03T19:55:12.731Z,,,,,,,,,,,,,,,,,54,,,,,,,,,,,,,,263.5629999927478,,response,,,,100,,,,,,,Space,keypress(Space),,,,,,,,-- --- ---- --- ------ ----- ------- ---- -- --- ------- --<br>------- ---------- ------ -- ----- -- ----- -- ---- ------<br>--- ----- --- --- ------ -------- ----- --- ------ ----- --<br>----- ----- ---------- --- --- ------ ------ ---- -- ------<br>------- --- ------ ----- --- ---- ------- -- ---- way --<br>------- ------,174457.27999997325,174456.21999999275,174175.995,174185.3949999786,174192.657,174459.249,,52,way
screen,html.Screen,2_1_1_1_53,2022-05-03T19:55:13.051Z,,,,,,,,,,,,,,,,,54,,,,,,,,,,,,,,316.9759999795933,,response,,,,100,,,,,,,Space,keypress(Space),,,,,,,,-- --- ---- --- ------ ----- ------- ---- -- --- ------- --<br>------- ---------- ------ -- ----- -- ----- -- ---- ------<br>--- ----- --- --- ------ -------- ----- --- ------ ----- --<br>----- ----- ---------- --- --- ------ ------ ---- -- ------<br>------- --- ------ ----- --- ---- ------- -- ---- --- of<br>------- ------,174777.3000000161,174776.2249999796,174442.587,174457.3949999758,174459.249,174792.489,,53,of
screen,html.Screen,2_1_1_1_54,2022-05-03T19:55:13.395Z,,,,,,,,,,,,,,,,,54,,,,,,,,,,,,,,327.73099998250837,,response,,,,100,,,,,,,Space,keypress(Space),,,,,,,,-- --- ---- --- ------ ----- ------- ---- -- --- ------- --<br>------- ---------- ------ -- ----- -- ----- -- ---- ------<br>--- ----- --- --- ------ -------- ----- --- ------ ----- --<br>----- ----- ---------- --- --- ------ ------ ---- -- ------<br>------- --- ------ ----- --- ---- ------- -- ---- --- --<br>raising ------,175121.27499998314,175120.2199999825,174775.827,174777.41499996046,174792.489,175125.729,,54,raising
screen,html.Screen,2_1_1_1_55,2022-05-03T19:55:13.748Z,,,,,,,,,,,,,,,,,54,,,,,,,,,,,,,,346.48600001615705,,response,,,,100,,,,,,,Space,keypress(Space),,,,,,,,-- --- ---- --- ------ ----- ------- ---- -- --- ------- --<br>------- ---------- ------ -- ----- -- ----- -- ---- ------<br>--- ----- --- --- ------ -------- ----- --- ------ ----- --<br>----- ----- ---------- --- --- ------ ------ ---- -- ------<br>------- --- ------ ----- --- ---- ------- -- ---- --- --<br>------- money.,175473.33999996772,175472.21500001615,175109.067,175121.38500000583,175125.729,175475.631,,55,money.
Item 100,flow.Loop,2_1_1_1,2022-05-03T19:55:13.748Z,,,,,,,,,,,,,,,,,,,,,,,,,,,,,,,17641.92500001614,,completion,,,,,A,,,,,,,,,,,silence,,,,,175473.52999995928,175472.21500001615,157813.628,157815.1749999961,157830.29,175475.631,,,
Question 1,html.Screen,2_1_1_2,2022-05-03T19:55:16.308Z,,,,,,,,,,,,,,,,,,,,,,,,,,,,true,TRUE,,2556.5939999735565,,response,,,,100,A,,,,,,TRUE,click #choice-1,,,,silence,,,,,178033.92999997595,178032.22499997355,175458.969,175473.62499998417,175475.631,178041.676,,,
Question 2,html.Screen,2_1_1_3,2022-05-03T19:55:18.972Z,,,,,,,,,,,,,,,,,,,,,,,,,,,,true,FALSE,,2654.483999992226,,response,,,,100,A,,,,,,FALSE,click #choice-2,,,,silence,,,,,180697.9299999657,180696.15999999223,178025.014,178034.03999999864,178041.676,180707.596,,,
Item 100,flow.Sequence,2_1_1,2022-05-03T19:55:18.973Z,,,,,,,,,,,,,,,,,,,,,,,,,,,,,,,32863.069999992236,,completion,,,,,,,,,,,,,,,,,,,,,180698.16999998875,180696.15999999223,147816.428,147834.23499995843,147833.09,180707.596,,,
End of Practice,html.Page,2_1_2,2022-05-03T19:55:21.726Z,,,,,,,,,,,,,,,,,,,,,,,,,,,,,,,2742.724000003567,,form submission,,,,,,,,,,,,,,,,,,,,,183451.1449999991,183450.32000000356,180690.934,180698.2699999935,180707.596,183456.826,,,
Practice,flow.Sequence,2_1,2022-05-03T19:55:21.726Z,,,,,,,,,,,,,,,,,,,,,,,,,,,,,,,77689.35500000356,,completion,,,,,,,,,,,,,,,,,,,,,183451.31500001298,183450.32000000356,105744.303,105747.59499996435,105760.965,183456.826,,,
Trap_instruction,html.Page,2_2_0,2022-05-03T19:55:24.277Z,,,,,,,,,,,,,,,,,,,,,,,,,,,,,,,2545.278999963193,,form submission,,,,,,,,,,,,,,,,,,,,,186002.44499999098,186002.1049999632,183440.164,183451.4349999954,183456.826,186022.774,,,
trap_trial,html.Screen,2_2_1,2022-05-03T19:55:28.013Z,,,,,,,,,,,,,,,,,,,,,,,,,,,,true,1,,3713.3659999936062,,response,,,,,,,,,,,1,click #choice-1,,,,,,,,,189737.9399999627,189736.1399999936,185989.45,186002.5499999756,186022.774,189738.4,,,
end of trap trial,html.Page,2_2_2,2022-05-03T19:55:29.710Z,,,,,,,,,,,,,,,,,,,,,,,,,,,,,,,1696.0050000072515,,form submission,,,,,,,,,,,,,,,,,,,,,191435.10999996215,191434.40500000725,189721.738,189738.05499996524,189738.4,191438.1,,,
Trap 1,flow.Sequence,2_2,2022-05-03T19:55:29.710Z,,,,,,,,,,,,,,,,,,,,,,,,,,,,,,,7977.579000007245,,completion,,,,,,,,,,,,,,,,,,,,,191435.2699999581,191434.40500000725,183440.164,183451.39499998186,183456.826,191438.1,,,
Standby,html.Page,2_3_0,2022-05-03T19:55:37.695Z,,,,,,,,,,,,,,,,,,,,,,,,,,,,,,,7997.75999999998,,timeout,,,,,,,,,,,,,,,,,,,,,199419.79499999434,199419.198,191421.438,191435.3949999786,191438.1,199435.86,,,
Holding screen,html.Screen,2_3_1_0_0,2022-05-03T19:55:44.693Z,,,,,,,,,,,,,,,,,,,,,,,,,,,,,,,6998.145000000019,,timeout,,,,,,,,,,,,,,,,,,,,,206417.88999998244,206417.343,199419.198,199419.98000000603,199435.86,206434.005,,,
screen,html.Screen,2_3_1_0_1_0,2022-05-03T19:55:45.805Z,,,,,,,,,,,,,,,,,12,,,,,,,,,,,,,,1094.219999958179,,response,,,,5,A,,,,,,Space,keypress(Space),,,,silence,,,,Some ------ ------ ------- ------ --- ------- -----------<br>-- ----- --- ---- -- --- ------ ---- - ---- -- ----------<br>-- ------ ---- --- ---- --- --- --- ----- -- -------- ---<br>------ ------- -------- --- ---- -- ------- ------------ --<br>------ -- ---- -- --- ---- -- -------- -- --- ------ ------,207529.79499998037,207528.22499995818,206417.343,206418.05999999633,206434.005,207533.697,,0,Some
screen,html.Screen,2_3_1_0_1_1,2022-05-03T19:55:46.021Z,,,,,,,,,,,,,,,,,12,,,,,,,,,,,,,,210.5180000133696,,response,,,,5,A,,,,,,Space,keypress(Space),,,,silence,,,,---- months ------ ------- ------ --- ------- -----------<br>-- ----- --- ---- -- --- ------ ---- - ---- -- ----------<br>-- ------ ---- --- ---- --- --- --- ----- -- -------- ---<br>------ ------- -------- --- ---- -- ------- ------------ --<br>------ -- ---- -- --- ---- -- -------- -- --- ------ ------,207745.33999996493,207744.21500001336,207517.035,207529.91499996278,207533.697,207750.303,,1,months
screen,html.Screen,2_3_1_0_1_2,2022-05-03T19:55:46.365Z,,,,,,,,,,,,,,,,,12,,,,,,,,,,,,,,337.91699997597607,,response,,,,5,A,,,,,,Space,keypress(Space),,,,silence,,,,"---- ------ later, ------- ------ --- ------- -----------<br>-- ----- --- ---- -- --- ------ ---- - ---- -- ----------<br>-- ------ ---- --- ---- --- --- --- ----- -- -------- ---<br>------ ------- -------- --- ---- -- ------- ------------ --<br>------ -- ---- -- --- ---- -- -------- -- --- ------ ------",208089.20499996748,208088.219999976,207733.641,207745.4499999876,207750.303,208100.205,,2,"later,"
screen,html.Screen,2_3_1_0_1_3,2022-05-03T19:55:46.653Z,,,,,,,,,,,,,,,,,12,,,,,,,,,,,,,,275.9849999808648,,response,,,,5,A,,,,,,Space,keypress(Space),,,,silence,,,,---- ------ ------ Michael ------ --- ------- -----------<br>-- ----- --- ---- -- --- ------ ---- - ---- -- ----------<br>-- ------ ---- --- ---- --- --- --- ----- -- -------- ---<br>------ ------- -------- --- ---- -- ------- ------------ --<br>------ -- ---- -- --- ---- -- -------- -- --- ------ ------,208377.24499998149,208376.18999998085,208083.543,208089.3100000103,208100.205,208383.459,,3,Michael
screen,html.Screen,2_3_1_0_1_4,2022-05-03T19:55:46.933Z,,,,,,,,,,,,,,,,,12,,,,,,,,,,,,,,272.7610000043933,,response,,,,5,A,,,,,,Space,keypress(Space),,,,silence,,,,---- ------ ------ ------- Larson --- ------- -----------<br>-- ----- --- ---- -- --- ------ ---- - ---- -- ----------<br>-- ------ ---- --- ---- --- --- --- ----- -- -------- ---<br>------ ------- -------- --- ---- -- ------- ------------ --<br>------ -- ---- -- --- ---- -- -------- -- --- ------ ------,208657.19499997795,208656.2200000044,208366.797,208377.35999998404,208383.459,208666.713,,4,Larson
screen,html.Screen,2_3_1_0_1_5,2022-05-03T19:55:47.213Z,,,,,,,,,,,,,,,,,12,,,,,,,,,,,,,,269.50699997413903,,response,,,,5,A,,,,,,Space,keypress(Space),,,,silence,,,,---- ------ ------ ------- ------ saw ------- -----------<br>-- ----- --- ---- -- --- ------ ---- - ---- -- ----------<br>-- ------ ---- --- ---- --- --- --- ----- -- -------- ---<br>------ ------- -------- --- ---- -- ------- ------------ --<br>------ -- ---- -- --- ---- -- -------- -- --- ------ ------,208937.22999998135,208936.21999997413,208650.051,208657.30500000063,208666.713,208949.967,,5,saw
screen,html.Screen,2_3_1_0_1_6,2022-05-03T19:55:47.469Z,,,,,,,,,,,,,,,,,12,,,,,,,,,,,,,,242.25800000614254,,response,,,,5,A,,,,,,Space,keypress(Space),,,,silence,,,,---- ------ ------ ------- ------ --- another -----------<br>-- ----- --- ---- -- --- ------ ---- - ---- -- ----------<br>-- ------ ---- --- ---- --- --- --- ----- -- -------- ---<br>------ ------- -------- --- ---- -- ------- ------------ --<br>------ -- ---- -- --- ---- -- -------- -- --- ------ ------,209193.2599999709,209192.22500000615,208933.305,208937.34000000404,208949.967,209199.897,,6,another
screen,html.Screen,2_3_1_0_1_7,2022-05-03T19:55:47.733Z,,,,,,,,,,,,,,,,,12,,,,,,,,,,,,,,256.3180000128923,,response,,,,5,A,,,,,,Space,keypress(Space),,,,silence,,,,---- ------ ------ ------- ------ --- ------- opportunity<br>-- ----- --- ---- -- --- ------ ---- - ---- -- ----------<br>-- ------ ---- --- ---- --- --- --- ----- -- -------- ---<br>------ ------- -------- --- ---- -- ------- ------------ --<br>------ -- ---- -- --- ---- -- -------- -- --- ------ ------,209457.18999998644,209456.2150000129,209183.235,209193.36500001373,209199.897,209466.489,,7,opportunity
screen,html.Screen,2_3_1_0_1_8,2022-05-03T19:55:48.389Z,,,,,,,,,,,,,,,,,12,,,,,,,,,,,,,,645.6409999649622,,response,,,,5,A,,,,,,Space,keypress(Space),,,,silence,,,,---- ------ ------ ------- ------ --- ------- -----------<br>to ----- --- ---- -- --- ------ ---- - ---- -- ----------<br>-- ------ ---- --- ---- --- --- --- ----- -- -------- ---<br>------ ------- -------- --- ---- -- ------- ------------ --<br>------ -- ---- -- --- ---- -- -------- -- --- ------ ------,210113.20500000147,210112.12999996496,209449.827,209457.30000000913,209466.489,210116.307,,8,to
screen,html.Screen,2_3_1_0_1_9,2022-05-03T19:55:48.725Z,,,,,,,,,,,,,,,,,12,,,,,,,,,,,,,,331.91800000009243,,response,,,,5,A,,,,,,Space,keypress(Space),,,,silence,,,,---- ------ ------ ------- ------ --- ------- -----------<br>-- stack --- ---- -- --- ------ ---- - ---- -- ----------<br>-- ------ ---- --- ---- --- --- --- ----- -- -------- ---<br>------ ------- -------- --- ---- -- ------- ------------ --<br>------ -- ---- -- --- ---- -- -------- -- --- ------ ------,210449.19499999378,210448.2250000001,210099.645,210113.31499996595,210116.307,210466.209,,9,stack
screen,html.Screen,2_3_1_0_1_10,2022-05-03T19:55:49.029Z,,,,,,,,,,,,,,,,,12,,,,,,,,,,,,,,286.02099998368067,,response,,,,5,A,,,,,,Space,keypress(Space),,,,silence,,,,---- ------ ------ ------- ------ --- ------- -----------<br>-- ----- the ---- -- --- ------ ---- - ---- -- ----------<br>-- ------ ---- --- ---- --- --- --- ----- -- -------- ---<br>------ ------- -------- --- ---- -- ------- ------------ --<br>------ -- ---- -- --- ---- -- -------- -- --- ------ ------,210753.29999998212,210752.22999998368,210449.547,210449.2999999784,210466.209,210766.125,,10,the
screen,html.Screen,2_3_1_0_1_11,2022-05-03T19:55:49.317Z,,,,,,,,,,,,,,,,,12,,,,,,,,,,,,,,274.05999999074265,,response,,,,5,A,,,,,,Space,keypress(Space),,,,silence,,,,---- ------ ------ ------- ------ --- ------- -----------<br>-- ----- --- odds -- --- ------ ---- - ---- -- ----------<br>-- ------ ---- --- ---- --- --- --- ----- -- -------- ---<br>------ ------- -------- --- ---- -- ------- ------------ --<br>------ -- ---- -- --- ---- -- -------- -- --- ------ ------,211041.10500001116,211040.18499999074,210749.463,210753.4100000048,210766.125,211049.573,,11,odds
screen,html.Screen,2_3_1_0_1_12,2022-05-03T19:55:49.637Z,,,,,,,,,,,,,,,,,12,,,,,,,,,,,,,,310.6319999753905,,response,,,,5,A,,,,,,Space,keypress(Space),,,,silence,,,,---- ------ ------ ------- ------ --- ------- -----------<br>-- ----- --- ---- in --- ------ ---- - ---- -- ----------<br>-- ------ ---- --- ---- --- --- --- ----- -- -------- ---<br>------ ------- -------- --- ---- -- ------- ------------ --<br>------ -- ---- -- --- ---- -- -------- -- --- ------ ------,211361.27499997383,211360.2049999754,211032.911,211041.20999999577,211049.573,211366.151,,12,in
screen,html.Screen,2_3_1_0_1_13,2022-05-03T19:55:49.941Z,,,,,,,,,,,,,,,,,12,,,,,,,,,,,,,,298.0740000149817,,response,,,,5,A,,,,,,Space,keypress(Space),,,,silence,,,,---- ------ ------ ------- ------ --- ------- -----------<br>-- ----- --- ---- -- his ------ ---- - ---- -- ----------<br>-- ------ ---- --- ---- --- --- --- ----- -- -------- ---<br>------ ------- -------- --- ---- -- ------- ------------ --<br>------ -- ---- -- --- ---- -- -------- -- --- ------ ------,211665.2549999999,211664.225000015,211349.489,211361.37999995844,211366.151,211666.067,,13,his
screen,html.Screen,2_3_1_0_1_14,2022-05-03T19:55:50.141Z,,,,,,,,,,,,,,,,,12,,,,,,,,,,,,,,198.15299998855335,,response,,,,5,A,,,,,,Space,keypress(Space),,,,silence,,,,---- ------ ------ ------- ------ --- ------- -----------<br>-- ----- --- ---- -- --- favour ---- - ---- -- ----------<br>-- ------ ---- --- ---- --- --- --- ----- -- -------- ---<br>------ ------- -------- --- ---- -- ------- ------------ --<br>------ -- ---- -- --- ---- -- -------- -- --- ------ ------,211865.38500001188,211864.21999998856,211649.405,211665.36499996437,211666.067,211866.011,,14,favour
screen,html.Screen,2_3_1_0_1_15,2022-05-03T19:55:50.357Z,,,,,,,,,,,,,,,,,12,,,,,,,,,,,,,,214.20900000346592,,response,,,,5,A,,,,,,Space,keypress(Space),,,,silence,,,,---- ------ ------ ------- ------ --- ------- -----------<br>-- ----- --- ---- -- --- ------ with - ---- -- ----------<br>-- ------ ---- --- ---- --- --- --- ----- -- -------- ---<br>------ ------- -------- --- ---- -- ------- ------------ --<br>------ -- ---- -- --- ---- -- -------- -- --- ------ ------,212081.24999998836,212080.22000000346,211849.349,211865.49499997636,211866.011,212082.617,,15,with
screen,html.Screen,2_3_1_0_1_16,2022-05-03T19:55:50.677Z,,,,,,,,,,,,,,,,,12,,,,,,,,,,,,,,317.62299998811795,,response,,,,5,A,,,,,,Space,keypress(Space),,,,silence,,,,---- ------ ------ ------- ------ --- ------- -----------<br>-- ----- --- ---- -- --- ------ ---- a ---- -- ----------<br>-- ------ ---- --- ---- --- --- --- ----- -- -------- ---<br>------ ------- -------- --- ---- -- ------- ------------ --<br>------ -- ---- -- --- ---- -- -------- -- --- ------ ------,212401.29499998875,212400.23999998812,212065.955,212081.35499997297,212082.617,212415.857,,16,a
screen,html.Screen,2_3_1_0_1_17,2022-05-03T19:55:50.981Z,,,,,,,,,,,,,,,,,12,,,,,,,,,,,,,,288.3630000141857,,response,,,,5,A,,,,,,Space,keypress(Space),,,,silence,,,,---- ------ ------ ------- ------ --- ------- -----------<br>-- ----- --- ---- -- --- ------ ---- - dash -- ----------<br>-- ------ ---- --- ---- --- --- --- ----- -- -------- ---<br>------ ------- -------- --- ---- -- ------- ------------ --<br>------ -- ---- -- --- ---- -- -------- -- --- ------ ------,212705.1999999676,212704.22000001417,212399.195,212401.39999997336,212415.857,212715.773,,17,dash
screen,html.Screen,2_3_1_0_1_18,2022-05-03T19:55:51.293Z,,,,,,,,,,,,,,,,,12,,,,,,,,,,,,,,300.4570000083768,,response,,,,5,A,,,,,,Space,keypress(Space),,,,silence,,,,---- ------ ------ ------- ------ --- ------- -----------<br>-- ----- --- ---- -- --- ------ ---- - ---- of ----------<br>-- ------ ---- --- ---- --- --- --- ----- -- -------- ---<br>------ ------- -------- --- ---- -- ------- ------------ --<br>------ -- ---- -- --- ---- -- -------- -- --- ------ ------,213017.27999997092,213016.23000000836,212699.111,212705.30999999028,212715.773,213032.351,,18,of
screen,html.Screen,2_3_1_0_1_19,2022-05-03T19:55:51.869Z,,,,,,,,,,,,,,,,,12,,,,,,,,,,,,,,559.8389999957581,,response,,,,5,A,,,,,,Space,keypress(Space),,,,silence,,,,---- ------ ------ ------- ------ --- ------- -----------<br>-- ----- --- ---- -- --- ------ ---- - ---- -- ingenuity.<br>-- ------ ---- --- ---- --- --- --- ----- -- -------- ---<br>------ ------- -------- --- ---- -- ------- ------------ --<br>------ -- ---- -- --- ---- -- -------- -- --- ------ ------,213593.21500000078,213592.18999999575,213015.689,213017.3899999936,213032.351,213615.521,,19,ingenuity.
screen,html.Screen,2_3_1_0_1_20,2022-05-03T19:55:52.253Z,,,,,,,,,,,,,,,,,12,,,,,,,,,,,,,,360.71899998903973,,response,,,,5,A,,,,,,Space,keypress(Space),,,,silence,,,,---- ------ ------ ------- ------ --- ------- -----------<br>-- ----- --- ---- -- --- ------ ---- - ---- -- ----------<br>He ------ ---- --- ---- --- --- --- ----- -- -------- ---<br>------ ------- -------- --- ---- -- ------- ------------ --<br>------ -- ---- -- --- ---- -- -------- -- --- ------ ------,213977.34499996295,213976.23999998905,213598.859,213593.3199999854,213615.521,213982.085,,20,He
screen,html.Screen,2_3_1_0_1_21,2022-05-03T19:55:52.805Z,,,,,,,,,,,,,,,,,12,,,,,,,,,,,,,,546.0850000050559,,response,,,,5,A,,,,,,Space,keypress(Space),,,,silence,,,,---- ------ ------ ------- ------ --- ------- -----------<br>-- ----- --- ---- -- --- ------ ---- - ---- -- ----------<br>-- walked ---- --- ---- --- --- --- ----- -- -------- ---<br>------ ------- -------- --- ---- -- ------- ------------ --<br>------ -- ---- -- --- ---- -- -------- -- --- ------ ------,214529.29500001483,214528.17000000505,213965.423,213977.45499998564,213982.085,214531.931,,21,walked
screen,html.Screen,2_3_1_0_1_22,2022-05-03T19:55:53.085Z,,,,,,,,,,,,,,,,,12,,,,,,,,,,,,,,276.26899997037253,,response,,,,5,A,,,,,,Space,keypress(Space),,,,silence,,,,---- ------ ------ ------- ------ --- ------- -----------<br>-- ----- --- ---- -- --- ------ ---- - ---- -- ----------<br>-- ------ into --- ---- --- --- --- ----- -- -------- ---<br>------ ------- -------- --- ---- -- ------- ------------ --<br>------ -- ---- -- --- ---- -- -------- -- --- ------ ------,214809.4099999871,214808.19999997038,214515.269,214529.39999999944,214531.931,214815.185,,22,into
screen,html.Screen,2_3_1_0_1_23,2022-05-03T19:55:53.349Z,,,,,,,,,,,,,,,,,12,,,,,,,,,,,,,,257.0349999727332,,response,,,,5,A,,,,,,Space,keypress(Space),,,,silence,,,,---- ------ ------ ------- ------ --- ------- -----------<br>-- ----- --- ---- -- --- ------ ---- - ---- -- ----------<br>-- ------ ---- his ---- --- --- --- ----- -- -------- ---<br>------ ------- -------- --- ---- -- ------- ------------ --<br>------ -- ---- -- --- ---- -- -------- -- --- ------ ------,215073.1950000045,215072.21999997273,214798.523,214809.5200000098,214815.185,215081.777,,23,his
screen,html.Screen,2_3_1_0_1_24,2022-05-03T19:55:53.549Z,,,,,,,,,,,,,,,,,12,,,,,,,,,,,,,,190.44799996423535,,response,,,,5,A,,,,,,Space,keypress(Space),,,,silence,,,,---- ------ ------ ------- ------ --- ------- -----------<br>-- ----- --- ---- -- --- ------ ---- - ---- -- ----------<br>-- ------ ---- --- bank --- --- --- ----- -- -------- ---<br>------ ------- -------- --- ---- -- ------- ------------ --<br>------ -- ---- -- --- ---- -- -------- -- --- ------ ------,215273.2599999872,215272.22499996424,215065.115,215073.30499996897,215081.777,215281.721,,24,bank
screen,html.Screen,2_3_1_0_1_25,2022-05-03T19:55:53.845Z,,,,,,,,,,,,,,,,,12,,,,,,,,,,,,,,286.50899997531087,,response,,,,5,A,,,,,,Space,keypress(Space),,,,silence,,,,---- ------ ------ ------- ------ --- ------- -----------<br>-- ----- --- ---- -- --- ------ ---- - ---- -- ----------<br>-- ------ ---- --- ---- one --- --- ----- -- -------- ---<br>------ ------- -------- --- ---- -- ------- ------------ --<br>------ -- ---- -- --- ---- -- -------- -- --- ------ ------,215569.35999996495,215568.2299999753,215265.059,215273.3700000099,215281.721,215581.637,,25,one
screen,html.Screen,2_3_1_0_1_26,2022-05-03T19:55:54.125Z,,,,,,,,,,,,,,,,,12,,,,,,,,,,,,,,266.6080000010552,,response,,,,5,A,,,,,,Space,keypress(Space),,,,silence,,,,---- ------ ------ ------- ------ --- ------- -----------<br>-- ----- --- ---- -- --- ------ ---- - ---- -- ----------<br>-- ------ ---- --- ---- --- day --- ----- -- -------- ---<br>------ ------- -------- --- ---- -- ------- ------------ --<br>------ -- ---- -- --- ---- -- -------- -- --- ------ ------,215849.41500000423,215848.24500000104,215564.975,215569.46500000777,215581.637,215864.891,,26,day
screen,html.Screen,2_3_1_0_1_27,2022-05-03T19:55:54.413Z,,,,,,,,,,,,,,,,,12,,,,,,,,,,,,,,271.33399996563094,,response,,,,5,A,,,,,,Space,keypress(Space),,,,silence,,,,---- ------ ------ ------- ------ --- ------- -----------<br>-- ----- --- ---- -- --- ------ ---- - ---- -- ----------<br>-- ------ ---- --- ---- --- --- and ----- -- -------- ---<br>------ ------- -------- --- ---- -- ------- ------------ --<br>------ -- ---- -- --- ---- -- -------- -- --- ------ ------,216137.27999996627,216136.22499996563,215848.229,215849.5249999687,215864.891,216148.145,,27,and
screen,html.Screen,2_3_1_0_1_28,2022-05-03T19:55:54.565Z,,,,,,,,,,,,,,,,,12,,,,,,,,,,,,,,140.0899999854446,,response,,,,5,A,,,,,,Space,keypress(Space),,,,silence,,,,---- ------ ------ ------- ------ --- ------- -----------<br>-- ----- --- ---- -- --- ------ ---- - ---- -- ----------<br>-- ------ ---- --- ---- --- --- --- asked -- -------- ---<br>------ ------- -------- --- ---- -- ------- ------------ --<br>------ -- ---- -- --- ---- -- -------- -- --- ------ ------,216289.17499998352,216288.23499998543,216131.483,216137.39499996882,216148.145,216298.103,,28,asked
screen,html.Screen,2_3_1_0_1_29,2022-05-03T19:55:54.901Z,,,,,,,,,,,,,,,,,12,,,,,,,,,,,,,,326.1369999755407,,response,,,,5,A,,,,,,Space,keypress(Space),,,,silence,,,,---- ------ ------ ------- ------ --- ------- -----------<br>-- ----- --- ---- -- --- ------ ---- - ---- -- ----------<br>-- ------ ---- --- ---- --- --- --- ----- to -------- ---<br>------ ------- -------- --- ---- -- ------- ------------ --<br>------ -- ---- -- --- ---- -- -------- -- --- ------ ------,216625.2749999985,216624.23999997554,216281.441,216289.2850000062,216298.103,216631.343,,29,to
screen,html.Screen,2_3_1_0_1_30,2022-05-03T19:55:55.205Z,,,,,,,,,,,,,,,,,12,,,,,,,,,,,,,,296.92699997487944,,response,,,,5,A,,,,,,Space,keypress(Space),,,,silence,,,,---- ------ ------ ------- ------ --- ------- -----------<br>-- ----- --- ---- -- --- ------ ---- - ---- -- ----------<br>-- ------ ---- --- ---- --- --- --- ----- -- withdraw ---<br>------ ------- -------- --- ---- -- ------- ------------ --<br>------ -- ---- -- --- ---- -- -------- -- --- ------ ------,216929.4649999938,216928.26999997487,216614.681,216625.384999963,216631.343,216931.259,,30,withdraw
screen,html.Screen,2_3_1_0_1_31,2022-05-03T19:55:55.525Z,,,,,,,,,,,,,,,,,12,,,,,,,,,,,,,,316.9709999683255,,response,,,,5,A,,,,,,Space,keypress(Space),,,,silence,,,,---- ------ ------ ------- ------ --- ------- -----------<br>-- ----- --- ---- -- --- ------ ---- - ---- -- ----------<br>-- ------ ---- --- ---- --- --- --- ----- -- -------- his<br>------ ------- -------- --- ---- -- ------- ------------ --<br>------ -- ---- -- --- ---- -- -------- -- --- ------ ------,217249.26000001142,217248.22999996832,216914.597,216929.5699999784,216931.259,217264.499,,31,his
screen,html.Screen,2_3_1_0_1_32,2022-05-03T19:55:55.869Z,,,,,,,,,,,,,,,,,12,,,,,,,,,,,,,,327.68600001587765,,response,,,,5,A,,,,,,Space,keypress(Space),,,,silence,,,,---- ------ ------ ------- ------ --- ------- -----------<br>-- ----- --- ---- -- --- ------ ---- - ---- -- ----------<br>-- ------ ---- --- ---- --- --- --- ----- -- -------- ---<br>entire ------- -------- --- ---- -- ------- ------------ --<br>------ -- ---- -- --- ---- -- -------- -- --- ------ ------,217593.46999996342,217592.1850000159,217247.837,217249.36499999603,217264.499,217597.739,,32,entire
screen,html.Screen,2_3_1_0_1_33,2022-05-03T19:55:56.173Z,,,,,,,,,,,,,,,,,12,,,,,,,,,,,,,,298.52100000862265,,response,,,,5,A,,,,,,Space,keypress(Space),,,,silence,,,,---- ------ ------ ------- ------ --- ------- -----------<br>-- ----- --- ---- -- --- ------ ---- - ---- -- ----------<br>-- ------ ---- --- ---- --- --- --- ----- -- -------- ---<br>------ account -------- --- ---- -- ------- ------------ --<br>------ -- ---- -- --- ---- -- -------- -- --- ------ ------,217897.34500000486,217896.26000000862,217581.077,217593.57500000624,217597.739,217914.317,,33,account
screen,html.Screen,2_3_1_0_1_34,2022-05-03T19:55:56.453Z,,,,,,,,,,,,,,,,,12,,,,,,,,,,,,,,261.9080000028771,,response,,,,5,A,,,,,,Space,keypress(Space),,,,silence,,,,"---- ------ ------ ------- ------ --- ------- -----------<br>-- ----- --- ---- -- --- ------ ---- - ---- -- ----------<br>-- ------ ---- --- ---- --- --- --- ----- -- -------- ---<br>------ ------- balance, --- ---- -- ------- ------------ --<br>------ -- ---- -- --- ---- -- -------- -- --- ------ ------",218177.314999979,218176.2250000029,217897.655,217897.44999998948,217914.317,218180.909,,34,"balance,"
screen,html.Screen,2_3_1_0_1_35,2022-05-03T19:55:56.725Z,,,,,,,,,,,,,,,,,12,,,,,,,,,,,,,,267.30599998214166,,response,,,,5,A,,,,,,Space,keypress(Space),,,,silence,,,,---- ------ ------ ------- ------ --- ------- -----------<br>-- ----- --- ---- -- --- ------ ---- - ---- -- ----------<br>-- ------ ---- --- ---- --- --- --- ----- -- -------- ---<br>------ ------- -------- but ---- -- ------- ------------ --<br>------ -- ---- -- --- ---- -- -------- -- --- ------ ------,218449.19999997364,218448.21499998216,218164.247,218177.4199999636,218180.909,218464.163,,35,but
screen,html.Screen,2_3_1_0_1_36,2022-05-03T19:55:57.013Z,,,,,,,,,,,,,,,,,12,,,,,,,,,,,,,,272.0620000005583,,response,,,,5,A,,,,,,Space,keypress(Space),,,,silence,,,,---- ------ ------ ------- ------ --- ------- -----------<br>-- ----- --- ---- -- --- ------ ---- - ---- -- ----------<br>-- ------ ---- --- ---- --- --- --- ----- -- -------- ---<br>------ ------- -------- --- with -- ------- ------------ --<br>------ -- ---- -- --- ---- -- -------- -- --- ------ ------,218737.1999999741,218736.22500000056,218447.501,218449.30999999633,218464.163,218747.417,,36,with
screen,html.Screen,2_3_1_0_1_37,2022-05-03T19:55:57.261Z,,,,,,,,,,,,,,,,,12,,,,,,,,,,,,,,236.7980000040552,,response,,,,5,A,,,,,,Space,keypress(Space),,,,silence,,,,---- ------ ------ ------- ------ --- ------- -----------<br>-- ----- --- ---- -- --- ------ ---- - ---- -- ----------<br>-- ------ ---- --- ---- --- --- --- ----- -- -------- ---<br>------ ------- -------- --- ---- an ------- ------------ --<br>------ -- ---- -- --- ---- -- -------- -- --- ------ ------,218985.16499996185,218984.21500000404,218730.755,218737.30499995872,218747.417,218997.347,,37,an
screen,html.Screen,2_3_1_0_1_38,2022-05-03T19:55:57.629Z,,,,,,,,,,,,,,,,,12,,,,,,,,,,,,,,354.8829999603913,,response,,,,5,A,,,,,,Space,keypress(Space),,,,silence,,,,---- ------ ------ ------- ------ --- ------- -----------<br>-- ----- --- ---- -- --- ------ ---- - ---- -- ----------<br>-- ------ ---- --- ---- --- --- --- ----- -- -------- ---<br>------ ------- -------- --- ---- -- unusual ------------ --<br>------ -- ---- -- --- ---- -- -------- -- --- ------ ------,219353.37500000605,219352.2299999604,218980.685,218985.27499998454,218997.347,219363.911,,38,unusual
screen,html.Screen,2_3_1_0_1_39,2022-05-03T19:55:57.973Z,,,,,,,,,,,,,,,,,12,,,,,,,,,,,,,,332.3089999834483,,response,,,,5,A,,,,,,Space,keypress(Space),,,,silence,,,,---- ------ ------ ------- ------ --- ------- -----------<br>-- ----- --- ---- -- --- ------ ---- - ---- -- ----------<br>-- ------ ---- --- ---- --- --- --- ----- -- -------- ---<br>------ ------- -------- --- ---- -- ------- stipulation: --<br>------ -- ---- -- --- ---- -- -------- -- --- ------ ------,219697.14000000386,219696.21999998344,219347.249,219353.47999999067,219363.911,219713.813,,39,stipulation:
screen,html.Screen,2_3_1_0_1_40,2022-05-03T19:55:58.397Z,,,,,,,,,,,,,,,,,12,,,,,,,,,,,,,,406.3319999935047,,response,,,,5,A,,,,,,Space,keypress(Space),,,,silence,,,,---- ------ ------ ------- ------ --- ------- -----------<br>-- ----- --- ---- -- --- ------ ---- - ---- -- ----------<br>-- ------ ---- --- ---- --- --- --- ----- -- -------- ---<br>------ ------- -------- --- ---- -- ------- ------------ He<br>------ -- ---- -- --- ---- -- -------- -- --- ------ ------,220121.14999996265,220120.1449999935,219697.151,219697.24999996834,219713.813,220130.363,,40,He
